ID,Elapsed Time (s),Acceleration_x,Acceleration_y,Acceleration_z,Gravity_x,Gravity_y,Gravity_z,Angular Velocity_x,Angular Velocity_y,Angular Velocity_z,Orientation_x,Orientation_y,Orientation_z,Character
1,2.93300035991706E-06,1.56820213794708,-2.77009129524231,9.34935760498047,1.64432907104492,-2.80507636070251,9.25192451477051,-0.0134390350431204,0.0122173046693206,0.019547687843442,0.0592500008642674,-0.1526869982481,0.976565003395081,Hello
1,0.0006403180013876,1.4484920501709,-2.90177249908447,9.37569427490234,1.63970172405243,-2.8111207485199,9.25091171264648,-0.0342084541916847,0.00855211354792118,0.0232128798961639,0.0592500008642674,-0.1526869982481,0.976565003395081,Hello
1,0.0013480350025929,1.52031803131104,-2.81079268455505,9.31583881378174,1.63753640651703,-2.81986856460571,9.24863243103027,-0.0415388382971287,0.00610865233466029,0.0171042270958424,0.0582659989595413,-0.152832999825478,0.976688027381897,Hello
1,0.0477767570009746,1.55383694171906,-2.82515811920166,9.3828763961792,1.6346640586853,-2.82798290252686,9.2466630935669,-0.0280998013913631,0.00855211354792118,0.0183259565383196,0.0582659989595413,-0.152832999825478,0.976688027381897,Hello
1,0.0506146059997263,1.53707754611969,-2.85388851165772,9.32781028747559,1.6333327293396,-2.82938742637634,9.24646854400635,-0.0366519130766392,0.00122173049021512,0.0134390350431204,0.0582659989595413,-0.152832999825478,0.976688027381897,Hello
1,0.0513402020005742,1.53228902816772,-2.88261890411377,9.31823348999023,1.63295638561249,-2.83368110656738,9.24522018432617,-0.0268780700862408,-0.00244346098043025,0.0207694191485643,0.0582659989595413,-0.152832999825478,0.976688027381897,Hello
1,0.0518953120008518,1.52271223068237,-2.70544791221619,9.31583881378174,1.64770460128784,-2.80491924285889,9.25137233734131,0.00366519158706069,0.0171042270958424,0.0134390350431204,0.0592500008642674,-0.1526869982481,0.976565003395081,Hello
1,0.0967257539996353,1.47482824325562,-2.75572609901428,9.32541561126709,1.63141167163849,-2.8361611366272,9.24473190307617,0.00244346098043025,0.00488692196086049,0.01588249579072,0.0582659989595413,-0.152832999825478,0.976688027381897,Hello
1,0.0973252139992837,1.56101953983307,-2.79163908958435,9.35654067993164,1.62808108329773,-2.83533358573914,9.24557304382324,0.00366519158706069,0.00122173049021512,0.0219911485910416,0.0582659989595413,-0.152832999825478,0.976688027381897,Hello
1,0.0992498699997668,1.4867992401123,-2.84910011291504,9.34456920623779,1.62631392478943,-2.8351845741272,9.24592971801758,-0.00244346098043025,-0.00244346098043025,0.019547687843442,0.0578490011394024,-0.153677999973297,0.976701974868774,Hello
1,0.145580952001183,1.48440504074097,-2.73417830467224,9.30626201629639,1.6250764131546,-2.83624148368835,9.24582290649414,-0.0232128798961639,-0.00122173049021512,0.0109955742955208,0.0578490011394024,-0.153677999973297,0.976701974868774,Hello
1,0.146158411000215,1.57059633731842,-2.82036972045898,9.27274322509766,1.62643265724182,-2.84409832954407,9.24317073822022,-0.0366519130766392,-0.00488692196086049,0.01588249579072,0.0578490011394024,-0.153677999973297,0.976701974868774,Hello
1,0.195026600002166,1.52989482879639,-2.86107110977173,9.28471374511719,1.62793004512787,-2.85195755958557,9.24048614501953,-0.0207694191485643,-0.00122173049021512,0.00855211354792118,0.0578490011394024,-0.153677999973297,0.976701974868774,Hello
1,0.19553198200083,1.44130945205688,-2.85149431228638,9.29907894134522,1.62674379348755,-2.85389161109924,9.24009799957275,0.00855211354792118,0.00122173049021512,0.00610865233466029,0.0578490011394024,-0.153677999973297,0.976701974868774,Hello
1,0.196105601000454,1.50834703445435,-2.7629086971283,9.35654067993164,1.62447667121887,-2.8503532409668,9.2415885925293,0.0109955742955208,0.00733038317412138,0.00244346098043025,0.0577009990811348,-0.154396995902061,0.976671993732452,Hello
1,0.242806849000772,1.59693253040314,-2.78445649147034,9.39724159240723,1.6232453584671,-2.84887957572937,9.24225902557373,-0.0183259565383196,0.00122173049021512,0.00733038317412138,0.0577009990811348,-0.154396995902061,0.976671993732452,Hello
1,0.244408692000434,1.47003984451294,-2.9352912902832,9.27513694763184,1.62256157398224,-2.85866069793701,9.23935794830322,-0.0561996027827263,-0.00244346098043025,0.00488692196086049,0.0577009990811348,-0.154396995902061,0.976671993732452,Hello
1,0.291514958000334,1.52989482879639,-2.84191751480103,9.37569427490234,1.62197387218475,-2.87071704864502,9.23572254180908,-0.058643065392971,0,0.00855211354792118,0.0577009990811348,-0.154396995902061,0.976671993732452,Hello
1,0.292207868002151,1.52989482879639,-2.82994651794434,9.37329959869385,1.62087750434875,-2.87809085845947,9.23361968994141,-0.0513126812875271,0,0.00122173049021512,0.0577009990811348,-0.154396995902061,0.976671993732452,Hello
1,0.340979814001912,1.68072962760925,-2.77727389335632,9.71088218688965,1.62380421161652,-2.88561296463013,9.23075771331787,-0.0390953756868839,-0.00488692196086049,-0.00855211354792118,0.0573799982666969,-0.15616500377655,0.976422011852264,Hello
1,0.34165707899956,1.64002811908722,-1.86508309841156,9.99100399017334,1.6241409778595,-2.88638353347778,9.2304573059082,-0.108734011650085,0.0647517144680023,-0.0305432621389627,0.0573799982666969,-0.15616500377655,0.976422011852264,Hello
1,0.343241601000045,1.35751235485077,-1.83395850658417,9.81622695922852,1.61301565170288,-2.92817759513855,9.21923732757568,-0.509461641311646,0.0684169083833695,-0.0537561401724815,0.0573799982666969,-0.15616500377655,0.976422011852264,Hello
1,0.389701682001032,1.40539634227753,-2.24815535545349,9.88326454162598,1.6030867099762,-3.05728268623352,9.1789722442627,-0.95783668756485,0.0745255574584007,-0.0610865242779255,0.0573799982666969,-0.15616500377655,0.976422011852264,Hello
1,0.390634013001545,1.1947066783905,-3.38300704956055,9.55047035217285,1.59181535243988,-3.26949334144592,9.10752010345459,-1.33779489994049,0.0757472887635231,-0.12705996632576,0.0573799982666969,-0.15616500377655,0.976422011852264,Hello
1,0.438386044999788,1.36230075359344,-3.36385345458984,9.4020299911499,1.58655297756195,-3.44218420982361,9.04458999633789,-1.32924282550812,0.0916297882795334,-0.167377084493637,0.0502230003476143,-0.180645003914833,0.971735000610352,Hello
1,0.439432079001563,0.541089594364166,-2.60967993736267,10.512939453125,1.57707750797272,-3.73771739006043,8.92819595336914,-1.34512531757355,0.0965167060494423,-0.212581098079681,0.0502230003476143,-0.180645003914833,0.971735000610352,Hello
1,0.439990123002644,0.40940847992897,-3.85945320129395,9.5815954208374,1.59145653247833,-4.00805950164795,8.80755996704102,-1.83259570598602,-0.135612085461617,-0.272445887327194,0.0502230003476143,-0.180645003914833,0.971735000610352,Hello
1,0.487712960999488,0.526724398136139,-6.82826328277588,9.81383323669434,1.66672956943512,-4.36349010467529,8.62278079986572,-2.14535880088806,-0.379958182573319,-0.415388375520706,0.0502230003476143,-0.180645003914833,0.971735000610352,Hello
1,0.488255639000272,1.2258312702179,-8.60715484619141,10.0293111801147,1.80296516418457,-4.69062471389771,8.42126750946045,-1.81671321392059,-0.623082578182221,-0.667064845561981,0.0502230003476143,-0.180645003914833,0.971735000610352,Hello
1,0.535675569000887,2.19069457054138,-8.70531749725342,10.5009689331055,1.93433368206024,-4.87041759490967,8.28901481628418,-1.42209434509277,-0.814894258975983,-0.840550601482391,0.0519229993224144,-0.263637989759445,0.94932097196579,Hello
1,0.536379584002134,0.665588080883026,-7.1227502822876,10.5632181167603,2.16207194328308,-5.06394529342651,8.1149435043335,-1.33168625831604,-0.970054030418396,-0.939510762691498,0.0519229993224144,-0.263637989759445,0.94932097196579,Hello
1,0.583767596002872,3.40934324264526,-9.32541561126709,10.1346559524536,2.51390194892883,-5.29602384567261,7.8614764213562,-1.48684597015381,-1.35245561599731,-1.11299645900726,0.0519229993224144,-0.263637989759445,0.94932097196579,Hello
1,0.586451512001077,3.61045622825623,-10.4147777557373,8.87769985198975,2.78921985626221,-5.41332864761353,7.68677520751953,-1.24494338035584,-1.60168862342834,-1.71653139591217,0.0519229993224144,-0.263637989759445,0.94932097196579,Hello
1,0.633074956000201,3.67031121253967,-8.94952583312988,9.68454551696777,3.23101735115051,-5.46014547348023,7.47781562805176,-0.232128798961639,-1.70064878463745,-1.96087741851807,0.0519229993224144,-0.263637989759445,0.94932097196579,Hello
1,0.633709616002307,3.76607918739319,-7.38371801376343,9.72285270690918,3.86357045173645,-5.27928972244263,7.30563545227051,0.0745255574584007,-1.85336518287659,-2.25287103652954,0.126475006341934,-0.320618987083435,0.914596974849701,Hello
1,0.637957940001797,4.4723687171936,-7.62074422836304,8.70292282104492,4.40218496322632,-5.10262060165405,7.12421369552612,-0.307876080274582,-2.13191962242126,-2.48255634307861,0.126475006341934,-0.320618987083435,0.914596974849701,Hello
1,0.681764347002172,5.08049583435059,-7.11556768417358,7.6686282157898,4.97347688674927,-4.9221339225769,6.87077331542969,-0.458148926496506,-2.23698854446411,-2.74400663375855,0.126475006341934,-0.320618987083435,0.914596974849701,Hello
1,0.682536528001947,4.95360326766968,-6.22492456436157,7.39808320999146,5.37309074401856,-4.76114416122437,6.68070316314697,-0.22724187374115,-2.21133208274841,-2.95780944824219,0.126475006341934,-0.320618987083435,0.914596974849701,Hello
1,0.684249002002616,5.28879165649414,-4.98233366012573,6.63912153244019,5.92481231689453,-4.46551704406738,6.41296672821045,-0.0696386396884918,-2.26142311096191,-3.13862562179565,0.126475006341934,-0.320618987083435,0.914596974849701,Hello
1,0.731148953000229,5.84424638748169,-3.51229381561279,5.73171901702881,6.47749519348145,-4.07300043106079,6.13376951217651,0.304210901260376,-2.20766711235046,-3.16183853149414,0.266317993402481,-0.329544991254807,0.854270994663239,Hello
1,0.731962969999586,6.24168395996094,-2.38941335678101,4.57053089141846,7.1276969909668,-3.44531798362732,5.78758096694946,0.536339700222015,-2.04639863967896,-3.18260788917542,0.266317993402481,-0.329544991254807,0.854270994663239,Hello
1,0.733185567001783,6.31590414047241,-1.32399356365204,4.26646757125855,7.55320596694946,-2.91564726829529,5.53339385986328,0.662177920341492,-1.87657809257507,-3.05310440063477,0.266317993402481,-0.329544991254807,0.854270994663239,Hello
1,0.778692784002487,6.21295356750488,-0.842759013175964,4.41251373291016,7.90906953811646,-2.38180685043335,5.28621053695679,0.616973876953125,-1.72264003753662,-2.91504883766174,0.266317993402481,-0.329544991254807,0.854270994663239,Hello
1,0.780289668000478,6.21295356750488,-0.701501071453095,4.35026454925537,8.20286369323731,-1.87435567378998,5.03688621520996,0.357967019081116,-1.57725405693054,-2.75744581222534,0.266317993402481,-0.329544991254807,0.854270994663239,Hello
1,0.82761300600032,6.68221712112427,-0.514753341674805,3.86663579940796,8.44252777099609,-1.40450417995453,4.78763961791992,0.152716308832169,-1.4611896276474,-2.62183356285095,0.384802997112274,-0.291289985179901,0.786203980445862,Hello
1,0.829302711001219,6.9431848526001,-0.270544797182083,3.34948825836182,8.6342077255249,-0.961484432220459,4.54932928085327,0.0598647929728031,-1.29625606536865,-2.45079135894775,0.384802997112274,-0.291289985179901,0.786203980445862,Hello
1,0.876752115000272,6.89769506454468,-0.40940847992897,2.23139595985413,8.77889919281006,-0.55142480134964,4.33557891845703,-0.168598800897598,-1.0800096988678,-2.35427474975586,0.384802997112274,-0.291289985179901,0.786203980445862,Hello
1,0.877382725000643,7.33583402633667,-0.0239420160651207,1.78846871852875,8.8791971206665,-0.167024791240692,4.15960931777954,-0.241902634501457,-0.835663676261902,-2.23210167884827,0.384802997112274,-0.291289985179901,0.786203980445862,Hello
1,0.87918669300052,7.48188018798828,0.292092621326447,2.26730895042419,8.94220352172852,0.203941151499748,4.02067279815674,-0.226020142436028,-0.713490605354309,-2.18201065063477,0.384802997112274,-0.291289985179901,0.786203980445862,Hello
1,0.926011842002481,7.41005420684814,0.447715729475021,2.28167414665222,8.97319984436035,0.564185500144959,3.91583514213562,-0.128281697630882,-0.510683357715607,-2.05372905731201,0.384802997112274,-0.291289985179901,0.786203980445862,Hello
1,0.926527700001316,7.8266453742981,1.35990655422211,2.12365698814392,8.98238563537598,0.918165266513825,3.82676386833191,0.0684169083833695,-0.412944912910461,-1.91078650951386,0.454364985227585,-0.265897005796433,0.713324010372162,Hello
1,0.976921604000381,7.89128875732422,2.46123933792114,1.60650932788849,8.9727725982666,1.2611563205719,3.75089526176453,0.167377084493637,-0.271224170923233,-1.73363554477692,0.454364985227585,-0.265897005796433,0.713324010372162,Hello
1,0.977537547001703,7.79312658309937,1.99676418304443,1.93451499938965,8.95492553710938,1.48103201389313,3.71298241615295,0.0513126812875271,-0.117286130785942,-1.52960658073425,0.454364985227585,-0.265897005796433,0.713324010372162,Hello
1,0.977984191002179,8.17859268188477,2.59770894050598,2.18830037117004,8.90105247497559,1.8296275138855,3.68701982498169,0.0403171069920063,0.0488692186772823,-1.37811195850372,0.454364985227585,-0.265897005796433,0.713324010372162,Hello
1,1.02271322000161,7.94635534286499,3.31836366653442,3.02148246765137,8.84142303466797,2.07994508743286,3.69776272773743,0.112399205565453,0.207694187760353,-1.19485247135162,0.454364985227585,-0.265897005796433,0.713324010372162,Hello
1,1.02427029400133,7.97747993469238,3.00951147079468,3.52187061309814,8.77598571777344,2.28725123405457,3.73107814788818,0.0232128798961639,0.259006857872009,-0.972497463226318,0.481642991304398,-0.228667005896568,0.671594023704529,Hello
1,1.12204320000092,7.36456441879273,1.89860188961029,4.28801536560059,8.71654987335205,2.4409031867981,3.77281308174133,0.0378736443817616,0.274889349937439,-0.811229050159454,0.481642991304398,-0.228667005896568,0.671594023704529,Hello
1,1.12281957199957,7.06768321990967,8.79869079589844,4.83868169784546,8.65029907226563,2.60377168655396,3.81616401672363,0.235793977975845,0.342084527015686,-0.572991609573364,0.481642991304398,-0.228667005896568,0.671594023704529,Hello
1,1.12349970000287,7.74284839630127,4.39575433731079,4.52982950210571,8.61203002929688,2.70115041732788,3.83498525619507,0.430049121379852,0.0720821022987366,0.133168622851372,0.481642991304398,-0.228667005896568,0.671594023704529,Hello
1,1.1239109340022,9.15063858032227,0.54827219247818,2.33434677124023,8.63957595825195,2.62761425971985,3.82410359382629,-0.88208943605423,-0.133168622851372,0.0891863256692886,0.481642991304398,-0.228667005896568,0.671594023704529,Hello
1,1.12633496600029,9.63426780700684,0.244208574295044,3.42849683761597,8.67504596710205,2.49260210990906,3.83417463302612,-0.66584312915802,-0.0525344125926495,0.151494577527046,0.481914013624191,-0.210988000035286,0.663598001003265,Hello
1,1.16975695800284,8.62152004241943,2.30082774162293,4.32392835617065,8.68477249145508,2.40434169769287,3.86836886405945,-0.04764748737216,0.136833816766739,0.00610865233466029,0.481914013624191,-0.210988000035286,0.663598001003265,Hello
1,1.17037960600283,8.5496940612793,3.02387666702271,4.69024133682251,8.66853713989258,2.41436147689819,3.89842438697815,-0.0134390350431204,0.122173048555851,-0.0256563406437635,0.481914013624191,-0.210988000035286,0.663598001003265,Hello
1,1.22003233800206,8.7292594909668,3.30160403251648,4.50588750839233,8.66195774078369,2.41962552070618,3.90976786613464,0.00244346098043025,0.0305432621389627,0.0598647929728031,0.481914013624191,-0.210988000035286,0.663598001003265,Hello
1,1.22075004200087,9.00459289550781,4.08450794219971,3.88339519500732,8.66726779937744,2.41983199119568,3.89785766601563,0.184481307864189,-0.0207694191485643,0.184481307864189,0.481914013624191,-0.210988000035286,0.663598001003265,Hello
1,1.22109590400214,9.17697525024414,5.25287866592407,3.49792861938477,8.67531871795654,2.42237496376038,3.87831687927246,0.321315109729767,0.00366519158706069,0.377514719963074,0.47503399848938,-0.217895999550819,0.664285004138947,Hello
1,1.26661869600139,9.19612884521484,6.75883150100708,3.45722723007202,8.6943244934082,2.38566565513611,3.85845994949341,0.310319542884827,0.112399205565453,0.675616979598999,0.47503399848938,-0.217895999550819,0.664285004138947,Hello
1,1.31589602299937,8.70052909851074,7.37174701690674,3.69664740562439,8.72797393798828,2.25108623504639,3.86335015296936,0.593761026859283,0.259006857872009,1.12032687664032,0.47503399848938,-0.217895999550819,0.664285004138947,Hello
1,1.3166679950009,8.28154373168945,8.93037223815918,4.43884992599487,8.74952793121338,2.14686751365662,3.87390065193176,1.12521374225616,0.430049121379852,1.75929188728333,0.47503399848938,-0.217895999550819,0.664285004138947,Hello
1,1.3181422350026,7.508216381073,9.61750793457031,4.55377149581909,8.804856300354,1.81917679309845,3.91605639457703,1.25227379798889,0.602313160896301,2.47889113426209,0.47503399848938,-0.217895999550819,0.664285004138947,Hello
1,1.31884639000054,7.29273843765259,6.0788779258728,3.82114601135254,8.84385681152344,1.41886377334595,3.992919921875,0.0232128798961639,0.605978310108185,3.20215559005737,0.47094801068306,-0.215382993221283,0.707469999790192,Hello
1,1.36370518700278,7.19457626342773,0.545877993106842,4.25210237503052,8.87331581115723,0.77615362405777,4.10271263122559,-0.660956203937531,0.583987176418304,3.65053081512451,0.47094801068306,-0.215382993221283,0.707469999790192,Hello
1,1.3666802780026,6.75883150100708,-2.78924489021301,4.82192230224609,8.86370086669922,0.257906854152679,4.18792009353638,-0.332310706377029,0.693942904472351,3.75437784194946,0.47094801068306,-0.215382993221283,0.707469999790192,Hello
1,1.41272297900287,6.4164605140686,-5.87297677993774,6.20098257064819,8.72584533691406,-0.766742527484894,4.40932273864746,-0.149051114916801,0.810007333755493,3.60532665252686,0.47094801068306,-0.215382993221283,0.707469999790192,Hello
1,1.41431504399952,5.69820022583008,-10.4889974594116,5.6024317741394,8.57711982727051,-1.4195202589035,4.53743839263916,-0.389732033014298,0.668286561965942,3.10930418968201,0.47094801068306,-0.215382993221283,0.707469999790192,Hello
1,1.46268015600072,5.55215358734131,-14.0036859512329,5.63834476470947,8.43404579162598,-1.92255854606628,4.61963558197022,-0.0305432621389627,0.447153359651566,2.34938764572144,0.39675098657608,-0.286552011966705,0.792630016803742,Hello
1,1.46333346400206,6.50983428955078,-11.2671127319336,6.1698579788208,8.32258987426758,-2.18655848503113,4.70359992980957,0.867428660392761,0.34941491484642,1.27182149887085,0.39675098657608,-0.286552011966705,0.792630016803742,Hello
1,1.46530749900194,7.63032102584839,-7.46751499176025,5.56651878356934,8.25923442840576,-2.25453925132751,4.78252077102661,0.789237916469574,0.123394779860973,0.387288570404053,0.39675098657608,-0.286552011966705,0.792630016803742,Hello
1,1.51078377600061,8.48026275634766,-4.8099513053894,4.9990930557251,8.25187492370606,-2.24278426170349,4.80071496963501,0.423940479755402,-0.145385921001434,-0.117286130785942,0.39675098657608,-0.286552011966705,0.792630016803742,Hello
1,1.51236753000194,8.75320148468018,-2.75572609901428,4.66390514373779,8.27663993835449,-2.19738388061523,4.77903127670288,0.295658767223358,-0.274889349937439,-0.359188765287399,0.39675098657608,-0.286552011966705,0.792630016803742,Hello
1,1.51299366999956,8.65503883361816,-0.9720458984375,4.78600931167603,8.33458709716797,-2.08354020118713,4.72904825210571,0.188146501779556,-0.33841934800148,-0.361632227897644,0.384811013936996,-0.282068997621536,0.817607998847961,Hello
1,1.55979556199964,8.50899314880371,-1.2258312702179,4.95839166641235,8.39101219177246,-1.99483728408813,4.66711521148682,-0.0305432621389627,-0.368962615728378,-0.276111096143723,0.384811013936996,-0.282068997621536,0.817607998847961,Hello
1,1.56037665300028,8.33182144165039,-0.933738648891449,4.97275686264038,8.42861175537109,-1.93172740936279,4.62572622299194,-0.00855211354792118,-0.328645497560501,-0.185703039169312,0.384811013936996,-0.282068997621536,0.817607998847961,Hello
1,1.60766192600204,8.06845951080322,-0.991199493408203,4.8793830871582,8.46686172485352,-1.88350117206573,4.57548475265503,0.0574213340878487,-0.289550125598907,-0.134390354156494,0.384811013936996,-0.282068997621536,0.817607998847961,Hello
1,1.60927620100119,7.73805999755859,-1.22104287147522,4.76206731796265,8.49409484863281,-1.85920190811157,4.53476667404175,0.0574213340878487,-0.210137650370598,-0.0390953756868839,0.384811013936996,-0.282068997621536,0.817607998847961,Hello
1,1.65652571499959,7.31428623199463,-1.29526317119598,4.72615432739258,8.51134300231934,-1.85042881965637,4.5059232711792,0.090408056974411,-0.102625362575054,0.0500909499824047,0.400635987520218,-0.278663992881775,0.809741973876953,Hello
1,1.65711134700177,6.95036745071411,-1.47961664199829,4.7213659286499,8.51534938812256,-1.85824275016785,4.49512529373169,0.0342084541916847,-0.0122173046693206,0.12705996632576,0.400635987520218,-0.278663992881775,0.809741973876953,Hello
1,1.65915655100252,6.70615911483765,-1.78607451915741,4.14196872711182,8.50949764251709,-1.8879908323288,4.493812084198,-0.106290549039841,0.0390953756868839,0.219911485910416,0.400635987520218,-0.278663992881775,0.809741973876953,Hello
1,1.70595753499947,6.72531270980835,-1.91536140441895,3.17231726646423,8.49644470214844,-1.94912600517273,4.49241065979004,-0.280998021364212,0.113620936870575,0.345749735832214,0.400635987520218,-0.278663992881775,0.809741973876953,Hello
1,1.70682323599976,6.57208347320557,-1.85790050029755,3.04542446136475,8.46845054626465,-2.04384899139404,4.50315666198731,-0.188146501779556,0.337197601795197,0.493579119443893,0.400635987520218,-0.278663992881775,0.809741973876953,Hello
1,1.75514260000273,6.29435634613037,-2.03985977172852,3.17949986457825,8.40975952148438,-2.14723467826843,4.56461572647095,0.141720741987228,0.645073711872101,0.614530444145203,0.390780985355377,-0.286143004894257,0.815016984939575,Hello
1,1.7557364029999,5.87058258056641,-2.93289709091187,3.73256039619446,8.31499099731445,-2.23969435691834,4.69202375411987,0.329867243766785,0.949284613132477,0.664621412754059,0.390780985355377,-0.286143004894257,0.815016984939575,Hello
1,1.75624339199931,5.87537097930908,-3.11006808280945,4.37420654296875,8.18652153015137,-2.33021783828735,4.87045669555664,0.153938040137291,1.18874371051788,0.65484756231308,0.390780985355377,-0.286143004894257,0.815016984939575,Hello
1,1.80312539300212,6.44040250778198,-2.59770894050598,4.93684387207031,8.0299015045166,-2.43177509307861,5.07715940475464,0.145385921001434,1.36100780963898,0.686612546443939,0.390780985355377,-0.286143004894257,0.815016984939575,Hello
1,1.8052679579996,6.39012432098389,-3.19147086143494,5.14035081863403,7.84529161453247,-2.53917384147644,5.30795431137085,0.17470745742321,1.51738929748535,0.72570788860321,0.390780985355377,-0.286143004894257,0.815016984939575,Hello
1,1.85163403200204,6.59602546691895,-2.95205068588257,4.96318006515503,7.6352162361145,-2.64718127250671,5.55574607849121,0.131946891546249,1.64078402519226,0.755029439926148,0.334479004144669,-0.272101014852524,0.849986016750336,Hello
1,1.852152544001,6.65109252929688,-2.89937829971313,4.73094272613525,7.40455055236816,-2.75272464752197,5.8108115196228,0.22235494852066,1.77273094654083,0.805120408535004,0.334479004144669,-0.272101014852524,0.849986016750336,Hello
1,1.85424133000197,6.36857652664185,-3.82114601135254,4.14675712585449,7.14352416992188,-2.85151696205139,6.08352851867676,0.368962615728378,1.94377315044403,0.846659243106842,0.334479004144669,-0.272101014852524,0.849986016750336,Hello
1,1.90169122299994,6.07169532775879,-3.3925838470459,4.65432786941528,6.84632110595703,-2.92993760108948,6.38073205947876,0.455705463886261,2.15391087532043,0.846659243106842,0.334479004144669,-0.272101014852524,0.849986016750336,Hello
1,1.90233538300163,5.9902925491333,-3.27287364006043,7.04613542556763,6.49222087860107,-3.00189256668091,6.70895671844482,0.612086951732636,2.23332333564758,0.884532868862152,0.334479004144669,-0.272101014852524,0.849986016750336,Hello
1,1.95078612100042,6.52659368515015,-3.37582445144653,7.66383981704712,6.02309036254883,-3.03352308273315,7.11972618103027,0.657290995121002,2.18445420265198,0.795346558094025,0.241487994790077,-0.237653002142906,0.896261990070343,Hello
1,1.95169994400203,6.47631549835205,-2.4396915435791,7.61116743087769,5.77926158905029,-3.01663970947266,7.32600927352905,0.927293419837952,2.17468023300171,0.806342124938965,0.241487994790077,-0.237653002142906,0.896261990070343,Hello
1,1.95213464500193,6.27759695053101,-0.493205547332764,8.59518432617188,5.30342626571655,-2.91703200340271,7.71589088439941,0.983493030071259,2.16612815856934,0.929736912250519,0.241487994790077,-0.237653002142906,0.896261990070343,Hello
1,1.99767727200015,6.16746377944946,-0.840364813804627,9.28710842132568,5.0437331199646,-2.86877584457397,7.90577459335327,0.572991609573364,2.00363802909851,1.03236222267151,0.241487994790077,-0.237653002142906,0.896261990070343,Hello
1,1.99924279700281,6.1100025177002,-1.70227742195129,9.75637149810791,4.67797756195068,-2.89095759391785,8.11968421936035,0.0268780700862408,1.81182634830475,1.11299645900726,0.241487994790077,-0.237653002142906,0.896261990070343,Hello
1,2.04675275400223,5.83945798873901,-2.31279873847961,10.6446208953857,4.32566452026367,-2.99611306190491,8.27540397644043,-0.098960168659687,1.68354463577271,1.16064393520355,0.161777004599571,-0.194701999425888,0.932069003582001,Hello
1,2.04714324499946,5.31033945083618,-2.43011474609375,11.3149976730347,3.98177337646484,-3.09108948707581,8.41195774078369,0.395840674638748,1.54915428161621,1.19851756095886,0.161777004599571,-0.194701999425888,0.932069003582001,Hello
1,2.09597888700228,4.49152231216431,-2.67671751976013,11.650185585022,3.65307354927063,-3.08852958679199,8.56074905395508,0.889419794082642,1.36589467525482,1.24983024597168,0.161777004599571,-0.194701999425888,0.932069003582001,Hello
1,2.09657394700116,4.07732534408569,-2.75333189964294,11.1833162307739,3.35451459884644,-3.02022004127502,8.70608329772949,0.723264455795288,1.15820050239563,1.16186571121216,0.161777004599571,-0.194701999425888,0.932069003582001,Hello
1,2.09945859200161,3.62003302574158,-2.60728573799133,10.7571477890015,3.09336113929749,-2.97966814041138,8.81606960296631,0.367740869522095,0.976162672042847,1.1545352935791,0.161777004599571,-0.194701999425888,0.932069003582001,Hello
1,2.14397613700203,3.39497804641724,-2.57616114616394,11.1785278320313,2.86048412322998,-2.98740530014038,8.89176177978516,0.307876080274582,0.834441900253296,1.17774820327759,0.118275001645088,-0.167758002877235,0.954944014549255,Hello
1,2.14563371500117,2.46602773666382,-3.65834021568298,11.8536930084229,2.64846277236938,-2.99466061592102,8.95477771759033,0.271224170923233,0.731816589832306,1.07512283325195,0.118275001645088,-0.167758002877235,0.954944014549255,Hello
1,2.19271008800206,1.65439331531525,-4.39096593856812,12.0715646743774,2.41521453857422,-3.02766466140747,9.00946044921875,-0.0305432621389627,0.557109117507935,0.880867660045624,0.118275001645088,-0.167758002877235,0.954944014549255,Hello
1,2.24204783000096,1.27132105827332,-3.7349545955658,11.2814788818359,2.31334924697876,-3.08021211624146,9.01837539672852,-0.44348818063736,0.348193198442459,0.814894258975983,0.118275001645088,-0.167758002877235,0.954944014549255,Hello
1,2.242749680001,0.895431458950043,-3.3231520652771,9.30626201629639,2.15601754188538,-3.27908253669739,8.98719120025635,-0.789237916469574,0.151494577527046,0.833220183849335,0.118275001645088,-0.167758002877235,0.954944014549255,Hello
1,2.24426484800279,0.466869324445725,-4.03901815414429,7.68538761138916,2.09210872650147,-3.42510461807251,8.94774436950684,-0.928515195846558,0.00610865233466029,0.778242349624634,0.105217002332211,-0.178650006651878,0.962244987487793,Hello
1,2.24486312100271,-0.0742202550172806,-5.25048446655273,7.7763671875,1.99026393890381,-3.68083024024963,8.86908912658691,-0.581543684005737,0.03176499158144,0.729373097419739,0.105217002332211,-0.178650006651878,0.962244987487793,Hello
1,2.29078988300171,-0.16280572116375,-5.41329002380371,8.34379291534424,1.86040890216827,-3.82803964614868,8.83489513397217,-0.16371189057827,0.0769690200686455,0.544891774654388,0.105217002332211,-0.178650006651878,0.962244987487793,Hello
1,2.29246911200244,-0.0742202550172806,-3.84987640380859,8.2528133392334,1.75397396087646,-3.86362361907959,8.8411750793457,0.302989155054092,0.1795943826437,0.392175495624542,0.105217002332211,-0.178650006651878,0.962244987487793,Hello
1,2.33876087200042,0.00718260509893298,-3.1890766620636,8.01578712463379,1.69699132442474,-3.82789945602417,8.86779594421387,0.315206468105316,0.265115529298782,0.284663200378418,0.105217002332211,-0.178650006651878,0.962244987487793,Hello
1,2.34027988200251,-0.442927300930023,-4.21140098571777,9.3637228012085,1.59105503559113,-3.82188272476196,8.89000225067139,-0.392175495624542,0.235793977975845,0.235793977975845,0.0982299968600273,-0.187808007001877,0.965012013912201,Hello
1,2.34088779300146,-0.521935999393463,-6.32308673858643,12.4977331161499,1.53041136264801,-3.92684531211853,8.85483551025391,-0.569326400756836,0.129503428936005,0.167377084493637,0.0982299968600273,-0.187808007001877,0.965012013912201,Hello
1,2.38782762399933,1.07978498935699,-5.17147588729858,10.2447891235352,1.5077315568924,-3.99091243743897,8.83004856109619,0.215024560689926,-0.11117747426033,0.00366519158706069,0.0982299968600273,-0.187808007001877,0.965012013912201,Hello
1,2.38930863900168,1.19231247901917,-0.746990919113159,9.02374649047852,1.55088567733765,-3.88417220115662,8.87008094787598,0.569326400756836,-0.141720741987228,0.0207694191485643,0.0982299968600273,-0.187808007001877,0.965012013912201,Hello
1,2.43827907800005,0.857124209403992,-2.61207413673401,9.50498104095459,1.55762839317322,-3.79346704483032,8.90807437896729,-0.01588249579072,-0.25411993265152,0.0366519130766392,0.0982299968600273,-0.187808007001877,0.965012013912201,Hello
1,2.43881966000117,1.52750062942505,-4.56574249267578,8.80347919464111,1.60150671005249,-3.84153199195862,8.8796501159668,-0.51434850692749,-0.34941491484642,0.0171042270958424,0.10216099768877,-0.188152998685837,0.965068995952606,Hello
1,2.44026009700247,2.0326771736145,-4.11084413528442,8.89685344696045,1.67383372783661,-3.92243266105652,8.83080863952637,0.0207694191485643,-0.169820532202721,0.0219911485910416,0.10216099768877,-0.188152998685837,0.965068995952606,Hello
1,2.48589875800099,1.69509482383728,-3.46680402755737,9.184157371521,1.69520878791809,-3.87795567512512,8.84636211395264,0.232128798961639,-0.0342084541916847,0.00244346098043025,0.10216099768877,-0.188152998685837,0.965068995952606,Hello
1,2.48657651200119,1.83874690532684,-3.88578939437866,9.02853488922119,1.71263217926025,-3.86989760398865,8.84653472900391,-0.173485726118088,-0.0952949747443199,0.0146607663482428,0.10216099768877,-0.188152998685837,0.965068995952606,Hello
1,2.53478119500141,1.9249382019043,-4.0270471572876,8.93516063690186,1.73707747459412,-3.90529775619507,8.82618808746338,-0.160046696662903,-0.0952949747443199,0.0232128798961639,0.10216099768877,-0.188152998685837,0.965068995952606,Hello
1,2.5353508320004,1.68551802635193,-3.71101260185242,8.90403652191162,1.75095653533936,-3.90899229049683,8.82180881500244,0.03176499158144,-0.0769690200686455,0.0488692186772823,0.107136003673077,-0.192377001047134,0.963958024978638,Hello
1,2.53616673500073,1.57059633731842,-4.03183555603027,8.85854625701904,1.75281345844269,-3.90478610992432,8.82330322265625,0.0329867228865624,-0.090408056974411,0.03176499158144,0.107136003673077,-0.192377001047134,0.963958024978638,Hello
1,2.58415658200101,1.63763391971588,-4.36941814422607,8.69813442230225,1.76312923431396,-3.91573596000671,8.81639194488525,-0.00366519158706069,-0.0842994004487991,0,0.107136003673077,-0.192377001047134,0.963958024978638,Hello
1,2.58457794300193,1.54186594486237,-4.05338335037231,8.75080680847168,1.76973235607147,-3.92011880874634,8.81312084197998,0.0574213340878487,-0.0635299831628799,-0.00366519158706069,0.107136003673077,-0.192377001047134,0.963958024978638,Hello
2,2.93400080408901E-06,1.64960491657257,-2.559401512146,9.31344413757324,1.77447175979614,-2.55010867118835,9.30153656005859,0.00610865233466029,0.00122173049021512,0.00366519158706069,0.068291999399662,-0.141370996832848,0.978989005088806,Hello
2,0.0455029570002807,1.5945383310318,-2.60010313987732,9.36611747741699,1.77333462238312,-2.54964280128479,9.30188083648682,0.00488692196086049,-0.00122173049021512,0.00366519158706069,0.068291999399662,-0.141370996832848,0.978989005088806,Hello
2,0.048249872001179,1.63763391971588,-2.46842193603516,9.40681838989258,1.77286398410797,-2.54815793037415,9.30237770080566,0.01588249579072,-0.00122173049021512,0.00366519158706069,0.0680560022592545,-0.140999004244804,0.979065001010895,Hello
2,0.0955300460009312,1.68791222572327,-2.49954652786255,9.47864437103272,1.7749559879303,-2.54139590263367,9.30382823944092,0.0293215326964855,0.00122173049021512,0.00488692196086049,0.0680560022592545,-0.140999004244804,0.979065001010895,Hello
2,0.0984100109999417,1.68791222572327,-2.49954652786255,9.47864437103272,1.7749559879303,-2.54139590263367,9.30382823944092,0.0293215326964855,0.00122173049021512,0.00488692196086049,0.0680560022592545,-0.140999004244804,0.979065001010895,Hello
2,0.0992403710006329,1.63763391971588,-2.58334374427795,9.3828763961792,1.77620565891266,-2.55009126663208,9.30121040344238,0.0109955742955208,0.00244346098043025,0.00855211354792118,0.068291999399662,-0.141370996832848,0.978989005088806,Hello
2,0.0997770430003584,1.63045132160187,-2.55461311340332,9.41400146484375,1.77528488636017,-2.53751301765442,9.30482578277588,0.00733038317412138,-0.00244346098043025,0.00733038317412138,0.0680560022592545,-0.140999004244804,0.979065001010895,Hello
2,0.100503826000931,1.52989482879639,-2.60489153862,9.42836666107178,1.77363085746765,-2.53990721702576,9.30448818206787,-0.00733038317412138,-0.00366519158706069,0.00488692196086049,0.0680560022592545,-0.140999004244804,0.979065001010895,Hello
2,0.144461023999611,1.64002811908722,-2.49236392974854,9.41160678863525,1.77432680130005,-2.53944087028503,9.30448246002197,0.00733038317412138,-0.00366519158706069,0.00244346098043025,0.0680560022592545,-0.140999004244804,0.979065001010895,Hello
2,0.194681577002484,1.73579621315002,-2.45645093917847,9.44991397857666,1.77457225322723,-2.53801918029785,9.30482387542725,-0.00366519158706069,-0.00244346098043025,-0.00122173049021512,0.0681610032916069,-0.140521004796028,0.979130029678345,Hello
2,0.195618378002109,1.7405846118927,-2.49236392974854,9.43315505981445,1.77768933773041,-2.53902983665466,9.30395221710205,-0.00855211354792118,-0.00488692196086049,0.00122173049021512,0.0681610032916069,-0.140521004796028,0.979130029678345,Hello
2,0.196319878003123,1.57059633731842,-2.55461311340332,9.37329959869385,1.77723824977875,-2.5423789024353,9.30312442779541,-0.0171042270958424,-0.00733038317412138,0.00122173049021512,0.0681610032916069,-0.140521004796028,0.979130029678345,Hello
2,0.241793222001434,1.59214413166046,-2.54982471466064,9.36611747741699,1.77543497085571,-2.54486155509949,9.30278968811035,-0.0219911485910416,-0.0109955742955208,-0.00366519158706069,0.0681610032916069,-0.140521004796028,0.979130029678345,Hello
2,0.244079943000543,1.66157603263855,-2.66714072227478,9.41878986358643,1.77961444854736,-2.55104732513428,9.30029678344727,-0.0109955742955208,-0.00733038317412138,-0.00855211354792118,0.0681610032916069,-0.140521004796028,0.979130029678345,Hello
2,0.244987968002533,1.68791222572327,-2.54743051528931,9.39245319366455,1.78246212005615,-2.55172562599182,9.29956531524658,-0.0109955742955208,-0.00244346098043025,-0.00855211354792118,0.0684090033173561,-0.141122996807098,0.979014992713928,Hello
2,0.290393634000793,1.70467162132263,-2.64080452919006,9.41160678863525,1.78301811218262,-2.55487823486328,9.29859352111816,-0.0207694191485643,-0.00733038317412138,-0.00610865233466029,0.0684090033173561,-0.141122996807098,0.979014992713928,Hello
2,0.291023544999916,1.62805712223053,-2.62883353233337,9.37090587615967,1.78430366516113,-2.55959367752075,9.2970495223999,-0.0171042270958424,-0.00244346098043025,-0.0109955742955208,0.0684090033173561,-0.141122996807098,0.979014992713928,Hello
2,0.339375806001044,1.66636443138123,-2.58573794364929,9.44752025604248,1.78593277931213,-2.56273627281189,9.29587078094482,-0.00610865233466029,0.00366519158706069,-0.0109955742955208,0.0684090033173561,-0.141122996807098,0.979014992713928,Hello
2,0.340083871000388,1.65199911594391,-2.66474652290344,9.38766479492188,1.7851699590683,-2.56393957138062,9.29568576812744,0.00244346098043025,0.00244346098043025,-0.00977384392172098,0.0684090033173561,-0.141122996807098,0.979014992713928,Hello
2,0.387545218000014,1.76452660560608,-2.56179571151733,9.42597198486328,1.7869565486908,-2.56286525726318,9.29563808441162,0.00122173049021512,0,-0.00855211354792118,0.0685409978032112,-0.141607999801636,0.978945016860962,Hello
2,0.388885151001887,1.71424841880798,-2.49954652786255,9.39005947113037,1.78800773620605,-2.56263637542725,9.29549980163574,-0.00488692196086049,-0.00244346098043025,-0.00610865233466029,0.0685409978032112,-0.141607999801636,0.978945016860962,Hello
2,0.389444800999627,1.66875863075256,-2.61446833610535,9.40681838989258,1.78749513626099,-2.56304574012756,9.295485496521,-0.00366519158706069,-0.00244346098043025,-0.00610865233466029,0.0685409978032112,-0.141607999801636,0.978945016860962,Hello
2,0.436468862000766,1.71664261817932,-2.56418991088867,9.37808799743652,1.7906928062439,-2.56506729125977,9.29431247711182,-0.00733038317412138,-0.00366519158706069,-0.00122173049021512,0.0685409978032112,-0.141607999801636,0.978945016860962,Hello
2,0.437978303001728,1.70227742195129,-2.56897830963135,9.36851119995117,1.79114723205566,-2.56550788879395,9.29410266876221,0.00488692196086049,-0.00366519158706069,-0.00366519158706069,0.0685409978032112,-0.141607999801636,0.978945016860962,Hello
2,0.486912983000366,1.62087452411652,-2.58094954490662,9.38048267364502,1.79043912887573,-2.56480550765991,9.29443264007568,0.0122173046693206,-0.00122173049021512,-0.00366519158706069,0.0686490014195442,-0.141678005456924,0.978924989700317,Hello
2,0.487556513002346,1.55623114109039,-2.50433492660522,9.3637228012085,1.78670430183411,-2.56312966346741,9.29561424255371,-0.00488692196086049,-0.00122173049021512,-0.00733038317412138,0.0686490014195442,-0.141678005456924,0.978924989700317,Hello
2,0.488194457000645,1.6711528301239,-2.55700731277466,9.32302188873291,1.7873500585556,-2.56511831283569,9.29494190216065,-0.00977384392172098,-0.00366519158706069,-0.00977384392172098,0.0686490014195442,-0.141678005456924,0.978924989700317,Hello
2,0.534422311000526,1.74297881126404,-2.53067111968994,9.37569427490234,1.78824651241303,-2.56471347808838,9.2948808670044,-0.00977384392172098,-0.00855211354792118,-0.00977384392172098,0.0686490014195442,-0.141678005456924,0.978924989700317,Hello
2,0.534987898001418,1.63763391971588,-2.58573794364929,9.37329959869385,1.7903026342392,-2.56676530838013,9.29391765594482,0.00122173049021512,-0.00733038317412138,-0.00366519158706069,0.0686490014195442,-0.141678005456924,0.978924989700317,Hello
2,0.583439964000718,1.6448165178299,-2.55221891403198,9.4044246673584,1.79049801826477,-2.5653657913208,9.29426670074463,0,-0.00366519158706069,-0.00122173049021512,0.068851001560688,-0.141754999756813,0.978897988796234,Hello
2,0.584275981000246,1.721431016922,-2.73657250404358,9.33978080749512,1.79187476634979,-2.5691397190094,9.29295921325684,-0.0244346093386412,-0.00122173049021512,-0.00610865233466029,0.068851001560688,-0.141754999756813,0.978897988796234,Hello
2,0.586124229001143,1.72621941566467,-2.50194072723389,9.3637228012085,1.79533135890961,-2.57223176956177,9.29143714904785,-0.00366519158706069,0.0134390350431204,-0.0256563406437635,0.068851001560688,-0.141754999756813,0.978897988796234,Hello
2,0.631744941001671,1.5753847360611,-2.27449154853821,9.74918937683106,1.79257524013519,-2.56737542152405,9.29331207275391,-0.0244346093386412,0.0427605658769608,-0.0513126812875271,0.068851001560688,-0.141754999756813,0.978897988796234,Hello
2,0.633208983999793,1.34554135799408,-1.51552963256836,10.0556468963623,1.785853266716,-2.56537008285522,9.29515933990479,-0.196698606014252,0.0647517144680023,-0.0561996027827263,0.068851001560688,-0.141754999756813,0.978897988796234,Hello
2,0.680889218001539,1.91296720504761,-1.29286897182465,9.95748519897461,1.78166604042053,-2.60133028030396,9.285964012146,-0.615752160549164,0.0488692186772823,-0.0525344125926495,0.0674680024385452,-0.140752002596855,0.978917002677918,Hello
2,0.682132068999636,1.74537301063538,-2.16914677619934,9.95269680023193,1.78133833408356,-2.78549361228943,9.23245620727539,-1.09344875812531,0.0268780700862408,-0.058643065392971,0.0674680024385452,-0.140752002596855,0.978917002677918,Hello
2,0.729508068001451,1.4676456451416,-2.71981310844421,9.76355457305908,1.78039646148682,-2.93454670906067,9.18634986877441,-1.27304315567017,-0.00122173049021512,-0.0940732508897781,0.0674680024385452,-0.140752002596855,0.978917002677918,Hello
2,0.730119053001545,1.29526317119598,-3.87621259689331,10.6134958267212,1.79450500011444,-3.22222948074341,9.08665943145752,-1.18752205371857,-0.0598647929728031,-0.15882496535778,0.0674680024385452,-0.140752002596855,0.978917002677918,Hello
2,0.731952633999754,1.21625447273254,-4.12281513214111,11.7459535598755,1.83883249759674,-3.45133233070374,8.99318599700928,-1.44164192676544,-0.22235494852066,-0.334754168987274,0.0674680024385452,-0.140752002596855,0.978917002677918,Hello
2,0.77737960200102,0.778115570545197,-5.65271043777466,12.4283008575439,1.89806437492371,-3.63883495330811,8.90654945373535,-1.69087505340576,-0.592539310455322,-0.432492583990097,0.0618340000510216,-0.188586995005608,0.969910979270935,Hello
2,0.779031173002295,2.07098436355591,-7.39568901062012,12.2080345153809,2.13465213775635,-3.9805109500885,8.70454978942871,-1.44042026996613,-1.04824471473694,-0.709825396537781,0.0618340000510216,-0.188586995005608,0.969910979270935,Hello
2,0.782385927999712,2.80839848518372,-7.95593214035034,10.2926731109619,2.42537879943848,-4.18355560302734,8.53145885467529,-1.28648221492767,-1.27548658847809,-0.994488596916199,0.0618340000510216,-0.188586995005608,0.969910979270935,Hello
2,0.8263536020022,3.04303026199341,-8.56405925750732,10.8720703125,2.73917388916016,-4.30122756958008,8.37655925750732,-0.802676916122437,-1.44408547878265,-1.02503192424774,0.0618340000510216,-0.188586995005608,0.969910979270935,Hello
2,0.828060628002277,3.31836366653442,-8.33182144165039,11.5496292114258,3.09639358520508,-4.35445547103882,8.22322750091553,-0.660956203937531,-1.61146247386932,-1.27670836448669,0.0618340000510216,-0.188586995005608,0.969910979270935,Hello
2,0.875381731002562,3.99831676483154,-7.17063426971436,11.0755767822266,3.50779008865356,-4.36401987075806,8.05115795135498,-0.635299861431122,-1.76173532009125,-1.5222761631012,0.0618340000510216,-0.188586995005608,0.969910979270935,Hello
2,0.877013117002207,3.97437477111816,-7.0820484161377,9.81143856048584,3.96276640892029,-4.34076261520386,7.85013723373413,-0.695164620876312,-1.91689515113831,-1.98042511940002,0.117655999958515,-0.253621995449066,0.944353997707367,Hello
2,0.877655601001607,4.57771348953247,-7.75960779190064,8.9064302444458,4.46371793746948,-4.27393388748169,7.61440086364746,-0.627969443798065,-2.1013765335083,-2.19911479949951,0.117655999958515,-0.253621995449066,0.944353997707367,Hello
2,0.924494858001708,4.71897172927856,-6.17464637756348,8.71968269348145,4.81690835952759,-4.18511343002319,7.44665098190308,-0.166155353188515,-2.21499729156494,-2.48744320869446,0.117655999958515,-0.253621995449066,0.944353997707367,Hello
2,0.925029015001201,4.46997451782227,-4.3837833404541,8.05648899078369,5.49771022796631,-3.8353590965271,7.15790367126465,0.329867243766785,-2.20278000831604,-2.69880270957947,0.117655999958515,-0.253621995449066,0.944353997707367,Hello
2,0.972420799000247,4.67827033996582,-4.84586429595947,6.86657047271729,5.98934984207153,-3.50995111465454,6.92663764953613,0.128281697630882,-2.30662727355957,-2.86007118225098,0.117655999958515,-0.253621995449066,0.944353997707367,Hello
2,0.973968862999755,5.65031623840332,-4.91529607772827,5.86100578308106,6.49583339691162,-3.18773055076599,6.61913204193115,-0.171042263507843,-2.36160492897034,-3.03233504295349,0.230106994509697,-0.264064013957977,0.902221977710724,Hello
2,1.02193419499963,5.24569606781006,-2.57376670837402,4.83628749847412,6.98017835617065,-2.76714658737183,6.30796337127686,0.164933621883392,-2.14169359207153,-3.1557297706604,0.230106994509697,-0.264064013957977,0.902221977710724,Hello
2,1.02314044900049,4.90811347961426,-1.30962836742401,4.57531929016113,7.38764667510986,-2.28740859031677,6.02999448776245,0.312763005495071,-1.96209919452667,-3.15328645706177,0.230106994509697,-0.264064013957977,0.902221977710724,Hello
2,1.02382881900121,5.59046077728272,-0.737414121627808,3.68946480751038,7.74339199066162,-1.79069924354553,5.74488210678101,0.177150920033455,-1.88513016700745,-3.07876086235046,0.230106994509697,-0.264064013957977,0.902221977710724,Hello
2,1.07087963000231,5.73171901702881,-0.359130263328552,3.32554626464844,8.04087734222412,-1.29509127140045,5.4623646736145,0.162490159273148,-1.69942712783813,-2.98102235794067,0.230106994509697,-0.264064013957977,0.902221977710724,Hello
2,1.07146149000255,5.56651878356934,0.584185242652893,3.22259545326233,8.27163410186768,-0.804365277290344,5.20609903335571,0.239459171891212,-1.45752441883087,-2.81120181083679,0.36252099275589,-0.244286999106407,0.825873017311096,Hello
2,1.12063747600041,5.85621738433838,0.90979665517807,2.8969841003418,8.444580078125,-0.324171155691147,4.97537803649902,0.135612085461617,-1.25593888759613,-2.62305545806885,0.36252099275589,-0.244286999106407,0.825873017311096,Hello
2,1.12136181400274,6.46913290023804,1.23780226707459,2.60728573799133,8.56452083587647,0.0918091014027596,4.77608108520508,-0.139277279376984,-1.0812314748764,-2.40680909156799,0.36252099275589,-0.244286999106407,0.825873017311096,Hello
2,1.12298887100042,6.81389808654785,1.82917010784149,2.4205379486084,8.64559173583984,0.466157674789429,4.60508680343628,-0.267558991909027,-0.855211317539215,-2.19056272506714,0.36252099275589,-0.244286999106407,0.825873017311096,Hello
2,1.16838175500016,6.80192708969116,1.58974993228912,2.5091233253479,8.68791103363037,0.796006917953491,4.47849988937378,-0.350636661052704,-0.601091384887695,-1.96698606014252,0.36252099275589,-0.244286999106407,0.825873017311096,Hello
2,1.16910560500037,7.03416442871094,1.73340201377869,2.6623523235321,8.69791984558106,1.08494806289673,4.3976674079895,-0.326202034950256,-0.356745302677155,-1.7434093952179,0.436495006084442,-0.223828002810478,0.742067992687225,Hello
2,1.21654362499976,7.33583402633667,2.55221891403198,3.14119267463684,8.68243980407715,1.35713708400726,4.3524489402771,-0.0464257597923279,-0.152716308832169,-1.50150680541992,0.436495006084442,-0.223828002810478,0.742067992687225,Hello
2,1.21828089300107,7.49624538421631,3.16034626960754,3.84269380569458,8.66100978851318,1.54129803180695,4.33378458023071,0.00977384392172098,-0.0280998013913631,-1.27182149887085,0.436495006084442,-0.223828002810478,0.742067992687225,Hello
2,1.21890759100279,7.46272659301758,2.827552318573,3.94803857803345,8.61202812194824,1.79827547073364,4.33238649368286,-0.32742378115654,0.0256563406437635,-0.996932089328766,0.436495006084442,-0.223828002810478,0.742067992687225,Hello
2,1.26640001800115,7.88889455795288,2.54264211654663,3.96958637237549,8.57842350006104,1.91489315032959,4.34904909133911,-0.4544837474823,0.04764748737216,-0.753807723522186,0.436495006084442,-0.223828002810478,0.742067992687225,Hello
2,1.31468062000204,8.02057552337647,2.6240451335907,4.53701210021973,8.54608631134033,2.01150107383728,4.36905765533447,-0.306654363870621,0.058643065392971,-0.586430609226227,0.453738987445831,-0.203639999032021,0.700477004051209,Hello
2,1.31540963900261,8.09718990325928,2.3056161403656,4.82671070098877,8.51351356506348,2.08219408988953,4.39942693710327,-0.230907067656517,0.0891863256692886,-0.437379509210587,0.453738987445831,-0.203639999032021,0.700477004051209,Hello
2,1.31700121500035,8.10916137695313,2.9855694770813,5.53060579299927,8.48968124389648,2.12214541435242,4.42630910873413,-0.287106662988663,0.0537561401724815,-0.357967019081116,0.453738987445831,-0.203639999032021,0.700477004051209,Hello
2,1.36244592300136,8.22887134552002,3.39497804641724,5.70538282394409,8.46948051452637,2.15337538719177,4.44986391067505,-0.552222192287445,-0.0855211317539215,-0.197920337319374,0.453738987445831,-0.203639999032021,0.700477004051209,Hello
2,1.36408059200039,8.56884765625,1.55623114109039,4.74051952362061,8.47628974914551,2.1131489276886,4.45617580413818,-0.812450766563416,-0.285884946584702,-0.0452040284872055,0.453738987445831,-0.203639999032021,0.700477004051209,Hello
2,1.36471783700108,8.89924812316895,1.54186594486237,4.36223554611206,8.51070404052734,2.02434015274048,4.43174600601196,-0.355523586273193,-0.280998021364212,-0.0134390350431204,0.447349011898041,-0.206725999712944,0.68555498123169,Hello
2,1.41161310800089,8.80108547210693,3.33751726150513,4.67827033996582,8.53792095184326,2.02665376663208,4.37800884246826,0.168598800897598,-0.166155353188515,-0.0183259565383196,0.447349011898041,-0.206725999712944,0.68555498123169,Hello
2,1.41314350200264,8.94234371185303,3.65355181694031,4.41969633102417,8.5499267578125,2.05065417289734,4.34326982498169,0.0720821022987366,-0.0977384373545647,0.0769690200686455,0.447349011898041,-0.206725999712944,0.68555498123169,Hello
2,1.46256763900237,9.00219821929932,2.26252055168152,4.02465295791626,8.56527137756348,2.01923966407776,4.32772397994995,-0.4544837474823,-0.0757472887635231,0.129503428936005,0.447349011898041,-0.206725999712944,0.68555498123169,Hello
2,1.46351484600018,9.16500377655029,0.452504128217697,4.81234550476074,8.5833101272583,1.92010998725891,4.33709239959717,-0.530231058597565,-0.0464257597923279,0.098960168659687,0.447349011898041,-0.206725999712944,0.68555498123169,Hello
2,1.46407931500289,9.14585018157959,1.36230075359344,5.36540603637695,8.58798789978027,1.871945977211,4.34887266159058,-0.0500909499824047,0.0305432621389627,-0.00244346098043025,0.44540798664093,-0.221799999475479,0.679616987705231,Hello
2,1.50952353400135,8.90403652191162,2.02549457550049,5.24090766906738,8.58493423461914,1.87421047687531,4.35392045974731,0.134390354156494,0.0232128798961639,-0.01588249579072,0.44540798664093,-0.221799999475479,0.679616987705231,Hello
2,1.5101168479996,8.78193187713623,2.27449154853821,4.67348194122314,8.58444499969482,1.88552093505859,4.3500018119812,-0.0769690200686455,-0.0207694191485643,0.00733038317412138,0.44540798664093,-0.221799999475479,0.679616987705231,Hello
2,1.55846750199999,8.73883628845215,1.79565131664276,4.69024133682251,8.59073829650879,1.86097896099091,4.34814310073853,-0.172263994812965,-0.0378736443817616,0.0171042270958424,0.44540798664093,-0.221799999475479,0.679616987705231,Hello
2,1.55908407400057,8.57363605499268,2.8467059135437,5.04937124252319,8.59365940093994,1.85414350032806,4.34529209136963,0.0415388382971287,-0.00855211354792118,0.0733038261532784,0.44540798664093,-0.221799999475479,0.679616987705231,Hello
2,1.55990346900217,8.36534118652344,3.00232887268066,4.92247867584229,8.58974075317383,1.87053966522217,4.34601402282715,0.294437050819397,0.0232128798961639,0.212581098079681,0.436805009841919,-0.233325004577637,0.670050024986267,Hello
2,1.60655303400199,8.59757804870606,2.82276391983032,4.01986455917358,8.6018648147583,1.87728440761566,4.31904029846191,0.510683357715607,0.00366519158706069,0.392175495624542,0.436805009841919,-0.233325004577637,0.670050024986267,Hello
2,1.60811087600086,8.67419242858887,3.96958637237549,3.50271701812744,8.62079906463623,1.89582026004791,4.27294683456421,0.911410927772522,0.0623082555830479,0.641408503055573,0.436805009841919,-0.233325004577637,0.670050024986267,Hello
2,1.65572957800032,8.73165321350098,8.17141056060791,3.45004463195801,8.63858985900879,1.86629831790924,4.24995231628418,1.49051117897034,0.312763005495071,1.14964842796326,0.436805009841919,-0.233325004577637,0.670050024986267,Hello
2,1.65713376600252,7.75242519378662,8.9471321105957,3.72537779808044,8.65415191650391,1.7554589509964,4.2654914855957,1.54548907279968,0.583987176418304,1.81549155712128,0.436805009841919,-0.233325004577637,0.670050024986267,Hello
2,1.70487713799957,7.61595582962036,6.41406631469727,3.61045622825623,8.66499042510986,1.52257287502289,4.3324499130249,0.475253164768219,0.673173487186432,2.33106184005737,0.454813003540039,-0.20354600250721,0.689849019050598,Hello
2,1.70555398400029,7.88171195983887,3.84987640380859,4.11802673339844,8.66936492919922,1.17119073867798,4.43179845809937,0.335975885391235,0.781907498836517,2.88450574874878,0.454813003540039,-0.20354600250721,0.689849019050598,Hello
2,1.70693337800185,6.63433313369751,1.68791222572327,4.10605573654175,8.64415168762207,0.708974182605743,4.57672452926636,0.592539310455322,1.02991878986359,3.11419105529785,0.454813003540039,-0.20354600250721,0.689849019050598,Hello
2,1.75255946700054,6.68939971923828,-0.351947635412216,4.95599746704102,8.59916973114014,0.359301805496216,4.70059251785278,0.560774266719818,1.09711396694183,3.17161226272583,0.454813003540039,-0.20354600250721,0.689849019050598,Hello
2,1.75478151400239,7.34780502319336,-0.40940847992897,6.43321990966797,8.44394493103027,-0.276504576206207,4.97932863235474,0.697608113288879,1.2046263217926,3.09219980239868,0.454813003540039,-0.20354600250721,0.689849019050598,Hello
2,1.80142199900001,4.46279191970825,-6.4858922958374,6.8737530708313,8.24179363250732,-0.856712102890015,5.24492740631104,0.403171062469482,1.20096111297607,3.02744817733765,0.415708988904953,-0.209805995225906,0.778518974781036,Hello
2,1.80293912300112,4.45800352096558,-10.3980178833008,7.33583402633667,8.06590080261231,-1.33589065074921,5.41544342041016,-0.0549778714776039,0.755029439926148,2.26386666297913,0.415708988904953,-0.209805995225906,0.778518974781036,Hello
2,1.8034943720013,5.9711389541626,-9.25358963012695,7.77157878875732,7.91925954818726,-1.68986475467682,5.53173446655273,0.266337245702744,0.656069278717041,1.90223431587219,0.415708988904953,-0.209805995225906,0.778518974781036,Hello
2,1.85060489900206,6.20098257064819,-8.06606578826904,6.87854146957398,7.80180263519287,-1.90753138065338,5.62704038619995,0.313984721899033,0.404392778873444,1.13987457752228,0.415708988904953,-0.209805995225906,0.778518974781036,Hello
2,1.85196941700269,6.92642545700073,-5.53060579299927,6.12436771392822,7.74134922027588,-2.02600049972534,5.66897058486939,0.17470745742321,0.140499010682106,0.587652385234833,0.415708988904953,-0.209805995225906,0.778518974781036,Hello
2,1.90019777600173,7.42202520370483,-3.45483303070068,5.59764337539673,7.69708919525147,-2.12382578849793,5.69337892532349,0.289550125598907,0.00733038317412138,0.260228604078293,0.369089007377625,-0.22681899368763,0.832786977291107,Hello
2,1.90103819400247,7.54173517227173,-2.32716393470764,5.21935987472534,7.69092893600464,-2.14163994789124,5.69503116607666,0.0745255574584007,-0.058643065392971,0.114842668175697,0.369089007377625,-0.22681899368763,0.832786977291107,Hello
2,1.9474068510026,7.3501992225647,-1.97761058807373,4.98233366012573,7.69735240936279,-2.16128349304199,5.67890930175781,-0.142942473292351,-0.0452040284872055,0.0855211317539215,0.369089007377625,-0.22681899368763,0.832786977291107,Hello
2,1.94896853500177,7.24246025085449,-1.50355863571167,5.38216543197632,7.70017099380493,-2.18682765960693,5.66529273986816,-0.0561996027827263,0.0623082555830479,0.0647517144680023,0.369089007377625,-0.22681899368763,0.832786977291107,Hello
2,1.94973086800019,6.89769506454468,-1.26653265953064,5.61440277099609,7.68213033676148,-2.2024245262146,5.68371343612671,-0.0268780700862408,0.182037845253944,0.081855945289135,0.369089007377625,-0.22681899368763,0.832786977291107,Hello
2,2.04572271399957,6.45955610275269,-1.35032975673676,5.5832781791687,7.65263414382935,-2.22798824310303,5.71346139907837,-0.145385921001434,0.265115529298782,0.139277279376984,0.37177500128746,-0.222540006041527,0.834313988685608,Hello
2,2.04642239900204,6.18661737442017,-1.43173265457153,5.52821159362793,7.61032772064209,-2.28256034851074,5.74832391738892,-0.293215304613113,0.326202034950256,0.215024560689926,0.37177500128746,-0.222540006041527,0.834313988685608,Hello
2,2.04804952500126,6.28717374801636,-1.60172092914581,5.14513921737671,7.55944061279297,-2.37069368362427,5.77971029281616,-0.483805269002914,0.366519153118134,0.323758572340012,0.37177500128746,-0.222540006041527,0.834313988685608,Hello
2,2.05010674200094,5.98310995101929,-2.00634098052979,5.11640882492065,7.49323225021362,-2.49951124191284,5.81156635284424,-0.624304294586182,0.459370672702789,0.467922776937485,0.37177500128746,-0.222540006041527,0.834313988685608,Hello
2,2.05067938300272,5.83706378936768,-2.23379015922546,5.0374002456665,7.40245771408081,-2.66483163833618,5.85428762435913,-0.713490605354309,0.608421802520752,0.609643518924713,0.37177500128746,-0.222540006041527,0.834313988685608,Hello
2,2.09477682400029,6.32069253921509,-2.85149431228638,4.48673391342163,7.2861909866333,-2.84721541404724,5.91398048400879,-0.615752160549164,0.752586007118225,0.707381963729858,0.34469598531723,-0.239437997341156,0.841913998126984,Hello
2,2.09527661900211,6.48828649520874,-3.03105926513672,4.92008447647095,7.13281011581421,-3.01789498329163,6.015456199646,-0.241902634501457,1.02747535705566,0.818559408187866,0.34469598531723,-0.239437997341156,0.841913998126984,Hello
2,2.1436841950017,6.03817653656006,-3.3231520652771,5.4444146156311,6.93390035629273,-3.14325094223022,6.1815357208252,0.171042263507843,1.38299894332886,0.872315585613251,0.34469598531723,-0.239437997341156,0.841913998126984,Hello
2,2.14434029800032,5.99986934661865,-3.11006808280945,6.07408952713013,6.68321228027344,-3.22506022453308,6.41124391555786,0.520457208156586,1.59191477298737,0.940732479095459,0.34469598531723,-0.239437997341156,0.841913998126984,Hello
2,2.19252312000026,6.50504589080811,-2.46602773666382,5.97353315353394,6.41200685501099,-3.27695608139038,6.65718555450439,0.557109117507935,1.66521871089935,1.01281452178955,0.34469598531723,-0.239437997341156,0.841913998126984,Hello
2,2.19306076900102,6.59602546691895,-1.06063139438629,5.21935987472534,6.21323966979981,-3.30920124053955,6.82753419876099,0.543670058250427,1.79472208023071,1.17041778564453,0.280378997325897,-0.231540992856026,0.875769972801209,Hello
2,2.19417916100065,5.1786584854126,-1.24737906455994,6.77319669723511,5.76200389862061,-3.38312482833862,7.17803335189819,0.773355424404144,1.99386417865753,1.37322509288788,0.280378997325897,-0.231540992856026,0.875769972801209,Hello
2,2.2403813130004,5.01345825195313,-2.39899015426636,7.72130060195923,5.37794589996338,-3.40638780593872,7.45953178405762,0.789237916469574,1.99508583545685,1.39155101776123,0.280378997325897,-0.231540992856026,0.875769972801209,Hello
2,2.24108728300052,5.65989303588867,-2.0829553604126,8.00142192840576,5.1231632232666,-3.39912986755371,7.6399941444397,0.70860368013382,1.91200816631317,1.41842913627625,0.280378997325897,-0.231540992856026,0.875769972801209,Hello
2,2.28972156900272,4.97515106201172,-1.55623114109039,8.89206504821777,4.74323892593384,-3.38181757926941,7.88894081115723,0.950506329536438,2.03173780441284,1.53938043117523,0.280378997325897,-0.231540992856026,0.875769972801209,Hello
2,2.29022101400187,3.39497804641724,-2.61925673484802,10.2950668334961,4.17676401138306,-3.34255146980286,8.21902561187744,1.02136671543121,2.03051614761353,1.55526292324066,0.191286996006966,-0.185452997684479,0.925846993923187,Hello
2,2.29226866300087,3.05978965759277,-4.55855989456177,11.3078145980835,3.87244987487793,-3.32532572746277,8.37357330322266,0.657290995121002,1.77028751373291,1.47218525409698,0.191286996006966,-0.185452997684479,0.925846993923187,Hello
2,2.3375129920023,3.15795207023621,-4.12042093276978,11.4562549591064,3.49000549316406,-3.33906412124634,8.53468799591065,0.444709897041321,1.47218525409698,1.3634512424469,0.191286996006966,-0.185452997684479,0.925846993923187,Hello
2,2.33919487500316,2.48278713226318,-3.03105926513672,10.5440645217896,3.05451917648315,-3.33709168434143,8.70081233978272,0.610865235328674,1.32069063186646,1.33535146713257,0.191286996006966,-0.185452997684479,0.925846993923187,Hello
2,2.38661606200185,2.00873517990112,-4.03901815414429,9.75637149810791,2.74189805984497,-3.31676459312439,8.81200695037842,0.502131223678589,1.166752576828,1.25960409641266,0.191286996006966,-0.185452997684479,0.925846993923187,Hello
2,2.38905874200282,1.67354702949524,-4.9990930557251,10.2016935348511,2.46233439445496,-3.33459401130676,8.88750743865967,0.177150920033455,1.02136671543121,1.12399208545685,0.113737002015114,-0.146298006176949,0.957427978515625,Hello
2,2.38972350500262,1.31441676616669,-3.52905321121216,11.5304756164551,2.21047973632813,-3.3517005443573,8.94708251953125,0.237015709280968,0.960280179977417,0.979827880859375,0.113737002015114,-0.146298006176949,0.957427978515625,Hello
2,2.43647853200309,1.52510643005371,-4.15154552459717,12.703634262085,2.05238056182861,-3.34707808494568,8.98638916015625,0.161268427968025,0.796568274497986,0.862541735172272,0.113737002015114,-0.146298006176949,0.957427978515625,Hello
2,2.43730609900013,-0.730231523513794,-12.3732347488403,24.8566017150879,1.83312368392944,-3.4100615978241,9.0100793838501,-0.475253164768219,0.226020142436028,1.12887895107269,0.113737002015114,-0.146298006176949,0.957427978515625,Hello
2,2.4854215230007,3.67749381065369,-3.99831676483154,2.69826531410217,1.85517036914825,-3.67035388946533,8.90265274047852,-1.60046696662903,-0.526565849781036,-0.0781907513737679,0.113737002015114,-0.146298006176949,0.957427978515625,Hello
2,2.48622995299957,1.37666594982147,-1.10372698307037,10.6996870040894,1.88726830482483,-3.71263265609741,8.878342628479,1.34390354156494,0.04764748737216,0.309097826480866,0.0852179974317551,-0.161155998706818,0.966093003749847,Hello
2,2.48713707000206,0.866701006889343,-2.95923328399658,9.45709705352783,1.83833277225494,-3.48521733283997,8.98021030426025,0.317649930715561,-0.0879645943641663,0.0146607663482428,0.0852179974317551,-0.161155998706818,0.966093003749847,Hello
2,2.53355049600214,2.39420175552368,-5.16429328918457,8.07803630828857,1.86386382579803,-3.51008176803589,8.96525096893311,-0.226020142436028,-0.0842994004487991,-0.0708603709936142,0.0852179974317551,-0.161155998706818,0.966093003749847,Hello
2,2.53412823500184,2.00873517990112,-3.52187061309814,9.07163047790527,1.88391697406769,-3.5404839515686,8.9490909576416,0.256563395261765,0.219911485910416,-0.108734011650085,0.0852179974317551,-0.161155998706818,0.966093003749847,Hello
2,2.58151191700017,0.98401689529419,-2.15717577934265,10.010157585144,1.84157073497772,-3.46341443061829,8.9879789352417,0.387288570404053,0.232128798961639,-0.0879645943641663,0.0852179974317551,-0.161155998706818,0.966093003749847,Hello
2,2.58313212900248,1.44130945205688,-2.18590617179871,9.47385597229004,1.80781412124634,-3.35987186431885,9.0340166091919,0.229685336351395,0.0720821022987366,-0.0500909499824047,0.0935759991407394,-0.152723997831345,0.96678102016449,Hello
2,2.5837728660008,1.33835875988007,-3.09809708595276,9.16500377655029,1.79659473896027,-3.31326150894165,9.05344867706299,-0.0891863256692886,-0.0183259565383196,-0.01588249579072,0.0935759991407394,-0.152723997831345,0.96678102016449,Hello
2,2.63059103100022,1.44609785079956,-3.3231520652771,9.0452938079834,1.79152393341064,-3.33870434761047,9.04510307312012,-0.103847093880177,-0.0574213340878487,-0.00366519158706069,0.0935759991407394,-0.152723997831345,0.96678102016449,Hello
3,3.77100150217302E-06,5.7245364189148,-4.35984134674072,7.13711547851563,5.16666412353516,-3.61321210861206,7.51136922836304,-0.499687761068344,-1.13498759269714,-1.08367490768433,0.17578099668026,-0.237863004207611,0.927753984928131,Hello
3,0.0009923950019583,5.82988119125366,-3.85945320129395,6.61039066314697,5.42871141433716,-3.57619380950928,7.34236431121826,-0.388510286808014,-1.08856189250946,-1.11543989181519,0.17578099668026,-0.237863004207611,0.927753984928131,Hello
3,0.049508785999933,5.6335563659668,-2.08534979820251,6.44997930526733,5.55765771865845,-3.52217984199524,7.27166271209717,-0.0268780700862408,-0.93095862865448,-1.12643551826477,0.17578099668026,-0.237863004207611,0.927753984928131,Hello
3,0.0502717480012507,5.76523780822754,-2.48278713226318,6.13155078887939,5.83222389221191,-3.35621356964111,7.13382053375244,0.00977384392172098,-0.873537302017212,-1.03724920749664,0.17578099668026,-0.237863004207611,0.927753984928131,Hello
3,0.0955144710023888,6.03338813781738,-3.23217225074768,5.68144083023071,6.02690839767456,-3.26217174530029,7.01462745666504,-0.252898216247559,-0.846659243106842,-0.933402121067047,0.213017001748085,-0.24346199631691,0.908420979976654,Hello
3,0.0965604360026191,4.53940629959106,-3.29202723503113,8.07803630828857,4.91291236877441,-3.65905356407166,7.6580023765564,-0.320093393325806,-1.07023596763611,-1.09955739974976,0.17578099668026,-0.237863004207611,0.927753984928131,Hello
3,0.0969988380020368,6.03338813781738,-3.23217225074768,5.68144083023071,6.02690839767456,-3.26217174530029,7.01462745666504,-0.252898216247559,-0.846659243106842,-0.933402121067047,0.213017001748085,-0.24346199631691,0.908420979976654,Hello
3,0.100190372002544,5.94480276107788,-2.69826531410217,6.06211853027344,6.19777536392212,-3.17703676223755,6.90394258499146,-0.0390953756868839,-0.684169054031372,-0.855211317539215,0.213017001748085,-0.24346199631691,0.908420979976654,Hello
3,0.101002224000695,5.81072759628296,-1.66397023200989,6.1100025177002,6.33430480957031,-3.06568241119385,6.82997465133667,0.0366519130766392,-0.50335294008255,-0.777020573616028,0.213017001748085,-0.24346199631691,0.908420979976654,Hello
3,0.143714754001849,5.89691877365112,-1.92733240127563,5.94001436233521,6.44338083267212,-2.99200415611267,6.76026296615601,-0.280998021364212,-0.436157792806625,-0.656069278717041,0.213017001748085,-0.24346199631691,0.908420979976654,Hello
3,0.144243324000854,6.19140577316284,-2.58813214302063,5.64552783966064,6.53568553924561,-2.97246170043945,6.67979764938355,-0.482583552598953,-0.357967019081116,-0.537561416625977,0.213017001748085,-0.24346199631691,0.908420979976654,Hello
3,0.192409453000437,6.21055936813355,-2.53785371780396,5.71256542205811,6.60823535919189,-2.96420550346375,6.61174011230469,-0.33841934800148,-0.22724187374115,-0.469144523143768,0.238551005721092,-0.249560996890068,0.891357004642487,Hello
3,0.192986703001225,6.08606052398682,-2.11886858940125,5.94959115982056,6.65573978424072,-2.92996454238892,6.57927322387695,-0.00977384392172098,-0.0928515195846558,-0.366519153118134,0.238551005721092,-0.249560996890068,0.891357004642487,Hello
3,0.240366125002765,6.16746377944946,-1.89141929149628,5.84185218811035,6.68399906158447,-2.8756730556488,6.57457733154297,0.102625362575054,-0.00122173049021512,-0.279776275157928,0.238551005721092,-0.249560996890068,0.891357004642487,Hello
3,0.243120163002459,6.19379997253418,-1.61608612537384,6.08606052398682,6.69625473022461,-2.83513402938843,6.57971000671387,0.0366519130766392,0.0549778714776039,-0.157603234052658,0.238551005721092,-0.249560996890068,0.891357004642487,Hello
3,0.290799000002153,6.24168395996094,-1.24737906455994,5.87776517868042,6.69774198532105,-2.81735515594482,6.58582973480225,0.0268780700862408,0.118507854640484,0.0183259565383196,0.238551005721092,-0.249560996890068,0.891357004642487,Hello
3,0.291583682999772,6.33745193481445,-0.881066203117371,5.60722017288208,6.66970348358154,-2.82257509231567,6.61199855804443,0.112399205565453,0.206472456455231,0.249233022332191,0.241958007216454,-0.24923400580883,0.886237978935242,Hello
3,0.292145079001784,5.98550415039063,-0.627280831336975,5.63595056533814,6.61286926269531,-2.84362649917603,6.6598916053772,0.277332812547684,0.388510286808014,0.509461641311646,0.241958007216454,-0.24923400580883,0.886237978935242,Hello
3,0.338805889001378,5.832275390625,-0.0215478148311377,5.65271043777466,6.51670360565186,-2.8792712688446,6.73889923095703,0.361632227897644,0.522900640964508,0.770911931991577,0.241958007216454,-0.24923400580883,0.886237978935242,Hello
3,0.339435102003336,5.69580602645874,-0.323217242956162,5.73171901702881,6.38807010650635,-2.95108914375305,6.8303747177124,0.265115529298782,0.65484756231308,1.08734011650085,0.241958007216454,-0.24923400580883,0.886237978935242,Hello
3,0.387443527000869,5.44202041625977,-0.433350503444672,5.57848978042603,6.2167820930481,-3.08791136741638,6.9272518157959,-0.0109955742955208,0.792903065681458,1.36222946643829,0.241958007216454,-0.24923400580883,0.886237978935242,Hello
3,0.388104379002471,5.20978307723999,-0.804451763629913,5.94959115982056,6.07487869262695,-3.22031283378601,6.99255466461182,-0.251676470041275,0.927293419837952,1.62734496593475,0.214439004659653,-0.241134002804756,0.905104994773865,Hello
3,0.38897762200213,4.93684387207031,-2.09971499443054,6.79713869094849,5.74371671676636,-3.53277254104614,7.12036657333374,-0.224798411130905,1.05313169956207,1.879021525383,0.214439004659653,-0.241134002804756,0.905104994773865,Hello
3,0.435487013000966,4.89135408401489,-1.944091796875,6.4858922958374,5.53956413269043,-3.70052170753479,7.19650983810425,-0.145385921001434,1.12643551826477,2.0390682220459,0.214439004659653,-0.241134002804756,0.905104994773865,Hello
3,0.436861727001087,4.18985319137573,-3.05739545822144,6.5553240776062,5.21705913543701,-3.94244408607483,7.30820226669312,-0.0830776765942574,1.19973933696747,2.17956709861755,0.214439004659653,-0.241134002804756,0.905104994773865,Hello
3,0.533269138002652,3.23217225074768,-5.26484966278076,7.33343982696533,4.72118806838989,-4.25836610794067,7.46639728546143,0.0684169083833695,1.25349545478821,2.20766711235046,0.214439004659653,-0.241134002804756,0.905104994773865,Hello
3,0.533940256002097,2.4205379486084,-5.32231044769287,7.73087739944458,4.29066514968872,-4.45586013793945,7.60959196090698,0.318871647119522,1.34023833274841,2.12947630882263,0.13748100399971,-0.251684010028839,0.936628997325897,Hello
3,0.535770834001596,1.49637603759766,-7.22809505462647,8.64306831359863,3.87558364868164,-4.58032083511353,7.75699090957642,0.494800835847855,1.26815629005432,1.93522107601166,0.13748100399971,-0.251684010028839,0.936628997325897,Hello
3,0.536461509000219,1.60172092914581,-8.67419242858887,10.0436763763428,3.50925326347351,-4.62659025192261,7.90254306793213,0.701273322105408,1.14598321914673,1.63956236839294,0.13748100399971,-0.251684010028839,0.936628997325897,Hello
3,0.538702273002855,2.14520478248596,-8.01339340209961,10.251971244812,3.20993065834045,-4.60668802261353,8.04022121429443,0.768468499183655,1.00548422336578,1.21806526184082,0.13748100399971,-0.251684010028839,0.936628997325897,Hello
3,0.584300215999974,2.33913516998291,-6.31590414047241,9.92875480651856,2.95568752288818,-4.56329107284546,8.16153621673584,0.625526010990143,0.861320018768311,0.977384388446808,0.13748100399971,-0.251684010028839,0.936628997325897,Hello
3,0.585104315003264,2.56658411026001,-5.37258863449097,9.5217399597168,2.74576830863953,-4.55800580978394,8.23745918273926,0.11606439948082,0.693942904472351,0.801455199718475,0.0826070010662079,-0.227562993764877,0.960572004318237,Hello
3,0.585479860001215,2.65756392478943,-5.64792203903198,9.27753162384033,2.5754508972168,-4.61765909194946,8.25921726226807,-0.232128798961639,0.557109117507935,0.66584312915802,0.0826070010662079,-0.227562993764877,0.960572004318237,Hello
3,0.630315329002769,2.58573794364929,-6.07648372650147,9.83777523040772,2.42999815940857,-4.68483972549439,8.26545715332031,-0.125838235020638,0.502131223678589,0.613308727741242,0.0826070010662079,-0.227562993764877,0.960572004318237,Hello
3,0.631939033002709,2.14041638374329,-6.2201361656189,10.4626617431641,2.28937244415283,-4.72825956344605,8.28086471557617,-0.0464257597923279,0.466701060533524,0.684169054031372,0.0826070010662079,-0.227562993764877,0.960572004318237,Hello
3,0.679329280003003,2.11886858940125,-6.40209531784058,11.4634380340576,2.16491532325745,-4.75762224197388,8.2975025177002,0.0305432621389627,0.331088960170746,0.515570282936096,0.0826070010662079,-0.227562993764877,0.960572004318237,Hello
3,0.680970514000364,2.33434677124023,-5.80115079879761,9.8784761428833,2.10517764091492,-4.76901912689209,8.30632781982422,-0.0549778714776039,0.120951317250729,0.312763005495071,0.0826070010662079,-0.227562993764877,0.960572004318237,Hello
3,0.728594385000179,2.28167414665222,-4.9105076789856,8.91361331939697,2.07031059265137,-4.79032802581787,8.30282878875732,0.0122173046693206,0.0207694191485643,0.0769690200686455,0.0589869990944862,-0.229848995804787,0.964944005012512,Hello
3,0.729115272002673,1.81959331035614,-4.68066453933716,8.85854625701904,2.06206297874451,-4.77402973175049,8.31426048278809,0.0952949747443199,0.0134390350431204,-0.0403171069920063,0.0589869990944862,-0.229848995804787,0.964944005012512,Hello
3,0.731039020000026,1.86508309841156,-4.97036266326904,8.82981586456299,2.0601224899292,-4.76790237426758,8.31825733184815,-0.0293215326964855,-0.0549778714776039,-0.0635299831628799,0.0589869990944862,-0.229848995804787,0.964944005012512,Hello
3,0.777517471000465,1.94648599624634,-4.58010768890381,8.4108304977417,2.0752637386322,-4.76801013946533,8.31443023681641,0.019547687843442,-0.0928515195846558,-0.112399205565453,0.0589869990944862,-0.229848995804787,0.964944005012512,Hello
3,0.778241111001989,2.24336695671082,-3.82832860946655,8.43956089019775,2.10538530349731,-4.74578714370728,8.31956958770752,0.136833816766739,-0.0610865242779255,-0.101403631269932,0.0589869990944862,-0.229848995804787,0.964944005012512,Hello
3,0.825395709001896,1.48919343948364,-4.70939493179321,8.69813442230225,2.11206769943237,-4.71517705917358,8.33526611328125,0.15882496535778,-0.0513126812875271,-0.0794124826788902,0.0704480037093163,-0.233181998133659,0.963204979896545,Hello
3,0.827047908001987,1.63523972034454,-5.22893667221069,8.93276691436768,2.11570525169373,-4.6972336769104,8.34447002410889,-0.0952949747443199,-0.081855945289135,-0.103847093880177,0.0704480037093163,-0.233181998133659,0.963204979896545,Hello
3,0.827631235002627,1.8171991109848,-5.58567237854004,9.38048267364502,2.13891816139221,-4.71726894378662,8.32723140716553,-0.169820532202721,-0.120951317250729,-0.162490159273148,0.0704480037093163,-0.233181998133659,0.963204979896545,Hello
3,0.874335836000682,1.65678763389587,-5.77242040634155,9.72764110565186,2.17417073249817,-4.7379150390625,8.30635452270508,-0.0781907513737679,-0.144164204597473,-0.279776275157928,0.0704480037093163,-0.233181998133659,0.963204979896545,Hello
3,0.875950390000071,1.9249382019043,-6.24407815933228,10.2591543197632,2.22869062423706,-4.73843193054199,8.29159832000732,-0.0928515195846558,-0.256563395261765,-0.434936046600342,0.0704480037093163,-0.233181998133659,0.963204979896545,Hello
3,0.927431046002312,2.60728573799133,-6.40927791595459,10.7715129852295,2.32317972183228,-4.73585367202759,8.26709842681885,-0.12705996632576,-0.412944912910461,-0.625526010990143,0.0787750035524368,-0.236144006252289,0.96101301908493,Hello
3,0.928125842001464,2.50672912597656,-6.45955610275269,11.3509101867676,2.46306252479553,-4.72235012054443,8.23426532745361,-0.0232128798961639,-0.546113550662994,-0.814894258975983,0.0787750035524368,-0.236144006252289,0.96101301908493,Hello
3,0.928480362999835,3.06218385696411,-5.69101762771606,11.9494609832764,2.70297813415527,-4.67810916900635,8.18410587310791,-0.144164204597473,-0.751364231109619,-0.902858853340149,0.0787750035524368,-0.236144006252289,0.96101301908493,Hello
3,0.973610011002165,2.84431171417236,-6.46913290023804,12.2247934341431,2.85816431045532,-4.66541814804077,8.13849830627441,-0.373849540948868,-0.989601671695709,-1.06046211719513,0.0787750035524368,-0.236144006252289,0.96101301908493,Hello
3,0.974200461001601,3.08373188972473,-7.78354978561401,11.7411651611328,3.14041662216187,-4.67439699172974,8.02858543395996,-0.65484756231308,-1.33779489994049,-1.41965079307556,0.0787750035524368,-0.236144006252289,0.96101301908493,Hello
3,1.02064573600001,3.5769374370575,-7.92720174789429,11.4754085540771,3.50530552864075,-4.68047571182251,7.87250709533691,-0.516791999340057,-1.60779738426209,-1.7446311712265,0.118860997259617,-0.245574995875359,0.949781000614166,Hello
3,1.02182628700029,3.69664740562439,-7.63032102584839,11.0252990722656,3.93441510200501,-4.61607646942139,7.7060112953186,-0.300545692443848,-1.83137404918671,-2.12092423439026,0.118860997259617,-0.245574995875359,0.949781000614166,Hello
3,1.02245969100113,4.35026454925537,-7.73805999755859,10.2807016372681,4.42563438415527,-4.47976398468018,7.51770257949829,-0.249233022332191,-2.12214589118958,-2.4801127910614,0.118860997259617,-0.245574995875359,0.949781000614166,Hello
3,1.06936502000099,4.36223554611206,-6.92403125762939,9.19373416900635,4.96812343597412,-4.28133583068848,7.29097414016724,-0.189368233084679,-2.32006621360779,-2.83685827255249,0.118860997259617,-0.245574995875359,0.949781000614166,Hello
3,1.07005597399984,4.76446151733398,-6.13633918762207,8.1331033706665,5.54169797897339,-4.01200532913208,7.0259370803833,-0.184481307864189,-2.47156071662903,-3.18016457557678,0.118860997259617,-0.245574995875359,0.949781000614166,Hello
3,1.11836165000204,5.27921485900879,-5.36061763763428,7.25921964645386,6.12032318115234,-3.68303966522217,6.71917152404785,-0.250454753637314,-2.55463838577271,-3.49903607368469,0.233849003911018,-0.26128500699997,0.906554996967316,Hello
3,1.11898946600195,5.30555105209351,-3.88100099563599,5.48272180557251,6.69075155258179,-3.28002238273621,6.37539625167847,0.019547687843442,-2.51676487922668,-3.69206953048706,0.233849003911018,-0.26128500699997,0.906554996967316,Hello
3,1.12092222400315,4.94163227081299,-2.58573794364929,4.70939493179321,7.2271032333374,-2.75043511390686,6.03112554550171,0.410501450300217,-2.43368721008301,-3.75193428993225,0.233849003911018,-0.26128500699997,0.906554996967316,Hello
3,1.1673715500001,5.18823528289795,-1.55144274234772,3.68228220939636,7.69782495498657,-2.13897466659546,5.68671131134033,0.345749735832214,-2.35183119773865,-3.82157301902771,0.233849003911018,-0.26128500699997,0.906554996967316,Hello
3,1.16800886400233,5.91607236862183,0.380678057670593,3.10527968406677,8.09733963012695,-1.5003856420517,5.32468938827515,0.133168622851372,-2.20522356033325,-3.81057739257813,0.233849003911018,-0.26128500699997,0.906554996967316,Hello
3,1.21572793100131,5.96156215667725,0.742202520370483,2.94726228713989,8.49009990692139,-0.673022627830505,4.86165237426758,0.03176499158144,-1.99752938747406,-3.72016930580139,0.369574010372162,-0.241954997181892,0.823713004589081,Hello
3,1.21712834700156,5.80354499816895,0.912190854549408,1.7597382068634,8.64311408996582,-0.230066061019897,4.62753105163574,0.191811680793762,-1.76540052890778,-3.5979962348938,0.369574010372162,-0.241954997181892,0.823713004589081,Hello
3,1.26440803300284,5.73650741577148,2.60249733924866,1.46046304702759,8.7916841506958,0.423269271850586,4.32406282424927,0.839328825473785,-1.46729826927185,-3.43184089660645,0.369574010372162,-0.241954997181892,0.823713004589081,Hello
3,1.26601099400068,6.22971296310425,4.35505294799805,0.861912608146668,8.86188411712647,1.10927963256836,4.05054378509522,1.12032687664032,-1.25105202198029,-3.12640833854675,0.369574010372162,-0.241954997181892,0.823713004589081,Hello
3,1.31340571100009,6.60081386566162,4.84347009658814,0.742202520370483,8.87301540374756,1.75179600715637,3.79093456268311,0.918741345405579,-1.02136671543121,-2.69758081436157,0.369574010372162,-0.241954997181892,0.823713004589081,Hello
3,1.31412690700017,6.57687187194824,5.23372507095337,1.15879356861115,8.83812046051025,2.30218625068665,3.57182693481445,0.627969443798065,-0.696386396884918,-2.31395745277405,0.485157996416092,-0.182310000061989,0.720305025577545,Hello
3,1.31601063500057,6.57208347320557,5.60003757476807,1.32399356365204,8.76844787597656,2.75905227661133,3.41648364067078,0.0891863256692886,-0.459370672702789,-1.88879537582397,0.485157996416092,-0.182310000061989,0.720305025577545,Hello
3,1.36259468700155,7.3501992225647,5.25048446655273,1.25216746330261,8.68824672698975,3.11234378814697,3.31633710861206,-0.334754168987274,-0.283441483974457,-1.44652891159058,0.485157996416092,-0.182310000061989,0.720305025577545,Hello
3,1.3632716730026,7.27837324142456,4.69502973556519,1.33835875988007,8.61465263366699,3.34374690055847,3.28291511535645,-0.588874101638794,-0.0439822971820831,-1.06412720680237,0.485157996416092,-0.182310000061989,0.720305025577545,Hello
3,1.36391778800316,5.69580602645874,3.97916316986084,4.24731397628784,8.54733753204346,3.47339653968811,3.32399082183838,-0.652404069900513,0.140499010682106,-0.715934038162231,0.485157996416092,-0.182310000061989,0.720305025577545,Hello
3,1.41164712099999,6.17943477630615,8.40364837646484,4.41251373291016,8.47049713134766,3.60983490943909,3.37493062019348,0.0671951770782471,0.081855945289135,0.00122173049021512,0.516458988189697,-0.14444600045681,0.665471971035004,Hello
3,1.41243138500067,7.30470943450928,3.72298359870911,3.45243883132935,8.46335697174072,3.63588571548462,3.36486411094666,-0.344527989625931,-0.101403631269932,0.333532422780991,0.516458988189697,-0.14444600045681,0.665471971035004,Hello
3,1.45926680200137,8.42759037017822,-0.256179571151733,1.85790050029755,8.51734924316406,3.45909070968628,3.41465497016907,-1.50883710384369,-0.151494577527046,0.279776275157928,0.516458988189697,-0.14444600045681,0.665471971035004,Hello
3,1.46082813600151,8.61433792114258,-0.0119710080325603,2.92092609405518,8.55193614959717,3.29054617881775,3.49386739730835,-0.875980734825134,0.0757472887635231,0.128281697630882,0.516458988189697,-0.14444600045681,0.665471971035004,Hello
3,1.46141558300224,7.76679039001465,2.54264211654663,3.99113416671753,8.54869079589844,3.24240374565125,3.54642009735107,0.15882496535778,0.244346097111702,0.00366519158706069,0.516458988189697,-0.14444600045681,0.665471971035004,Hello
3,1.50845019100234,7.56088876724243,4.92247867584229,4.09169054031372,8.513747215271,3.31782698631287,3.56069469451904,0.544891774654388,0.217468023300171,0.0293215326964855,0.498603999614716,-0.166594997048378,0.662209987640381,Hello
3,1.50901703400086,8.04930591583252,6.09084892272949,3.46680402755737,8.49658584594727,3.37948369979858,3.54365563392639,0.467922776937485,0.134390354156494,0.156381502747536,0.498603999614716,-0.166594997048378,0.662209987640381,Hello
3,1.60562650000065,8.59997272491455,7.16824007034302,1.99197578430176,8.49593734741211,3.40273642539978,3.52290010452271,0.224798411130905,0.0952949747443199,0.412944912910461,0.498603999614716,-0.166594997048378,0.662209987640381,Hello
3,1.60703166500025,8.75559520721436,6.32548093795776,2.72938990592957,8.53170967102051,3.31882858276367,3.51649022102356,0.151494577527046,0.212581098079681,0.817337691783905,0.498603999614716,-0.166594997048378,0.662209987640381,Hello
3,1.60764858600305,8.47307968139648,8.391676902771,4.42687892913818,8.57025146484375,3.16594099998474,3.56342339515686,0.300545692443848,0.542448341846466,1.28526043891907,0.498603999614716,-0.166594997048378,0.662209987640381,Hello
3,1.61033899800168,8.27914905548096,10.2088756561279,3.51947641372681,8.62366199493408,2.92664337158203,3.63835215568543,0.591317534446716,0.700051546096802,2.02440738677979,0.49796399474144,-0.159281000494957,0.678556025028229,Hello
3,1.61101130400129,8.31985092163086,9.2248592376709,1.89620769023895,8.70497512817383,2.56519508361816,3.71666383743286,0.781907498836517,0.796568274497986,2.80509328842163,0.49796399474144,-0.159281000494957,0.678556025028229,Hello
3,1.65472670600138,7.76439619064331,7.52497577667236,2.72699570655823,8.77156448364258,2.13145065307617,3.83235621452332,0.844215750694275,1.18752205371857,3.3646457195282,0.49796399474144,-0.159281000494957,0.678556025028229,Hello
3,1.65597689100105,7.15626907348633,5.73411321640015,3.56257224082947,8.77707386016846,1.90773594379425,3.9362313747406,0.289550125598907,1.45630276203156,3.78736448287964,0.49796399474144,-0.159281000494957,0.678556025028229,Hello
3,1.70352749700032,6.85699367523193,0.732625722885132,4.36702394485474,8.77909851074219,1.25158476829529,4.1870493888855,0.118507854640484,1.58702790737152,4.05614519119263,0.49796399474144,-0.159281000494957,0.678556025028229,Hello
3,1.70409769300022,5.87297677993774,-3.55778384208679,6.05733013153076,8.70838642120361,0.504071831703186,4.48110675811768,0.389732033014298,1.6578882932663,4.08791017532349,0.449999004602432,-0.184147998690605,0.773676991462708,Hello
3,1.75250827200216,3.39018964767456,-10.7930612564087,9.60314273834229,8.49710941314697,-0.339153647422791,4.88410663604736,1.19363069534302,1.79227864742279,3.74093866348267,0.449999004602432,-0.184147998690605,0.773676991462708,Hello
3,1.75307609300216,4.18745899200439,-13.9917144775391,9.89044761657715,8.3543643951416,-0.682744085788727,5.09007501602173,0.543670058250427,1.45508098602295,2.80387139320374,0.449999004602432,-0.184147998690605,0.773676991462708,Hello
3,1.75590514299984,5.5138463973999,-12.1721210479736,9.09557247161865,8.13229274749756,-1.13031780719757,5.36270189285278,0.34330627322197,0.897971928119659,1.6212363243103,0.449999004602432,-0.184147998690605,0.773676991462708,Hello
3,1.80040962800194,7.508216381073,-7.06289482116699,7.52976417541504,8.04238319396973,-1.27199041843414,5.465576171875,0.299323976039887,0.337197601795197,0.405614525079727,0.449999004602432,-0.184147998690605,0.773676991462708,Hello
3,1.80210066000291,8.77714347839356,-3.17710566520691,6.32548093795776,8.02526092529297,-1.26221716403961,5.49293947219849,0.348193198442459,-0.0708603709936142,-0.21135938167572,0.379987001419067,-0.196235999464989,0.853744983673096,Hello
3,1.8493741300008,9.26556015014648,0.0526724383234978,4.91529607772827,8.07192516326904,-1.17127227783203,5.44449710845947,0.0647517144680023,-0.372627794742584,-0.436157792806625,0.379987001419067,-0.196235999464989,0.853744983673096,Hello
3,1.85280697000053,9.07163047790527,2.05661916732788,4.58489608764648,8.13490581512451,-1.06545042991638,5.37201070785523,-0.0464257597923279,-0.442266434431076,-0.378736466169357,0.379987001419067,-0.196235999464989,0.853744983673096,Hello
3,1.85347320000074,8.28633213043213,2.65516972541809,4.33829355239868,8.24340057373047,-0.875150263309479,5.23935508728027,-0.175929188728333,-0.310319542884827,-0.147829383611679,0.379987001419067,-0.196235999464989,0.853744983673096,Hello
3,1.89825642700089,7.77397298812866,1.92972660064697,3.92888498306274,8.28532123565674,-0.853683114051819,5.17639541625977,-0.383623361587524,-0.153938040137291,0.146607652306557,0.379987001419067,-0.196235999464989,0.853744983673096,Hello
3,1.89885351300109,7.20415306091309,0.919373452663422,4.00549936294556,8.29171848297119,-0.938278913497925,5.15145015716553,-0.414166629314423,0.0378736443817616,0.448375076055527,0.392913997173309,-0.196023002266884,0.845553994178772,Hello
3,1.94760366700211,6.54574728012085,0.24899697303772,3.99831676483154,8.26569652557373,-1.07322371006012,5.16689872741699,-0.326202034950256,0.262672066688538,0.680503904819489,0.392913997173309,-0.196023002266884,0.845553994178772,Hello
3,1.94829664700228,6.49068069458008,-0.172382518649101,3.80678081512451,8.23240566253662,-1.17891371250153,5.19692754745483,-0.219911485910416,0.469144523143768,0.89308500289917,0.392913997173309,-0.196023002266884,0.845553994178772,Hello
3,1.94983402500293,6.39970111846924,-0.665588080883026,3.45722723007202,8.15573215484619,-1.3554995059967,5.27418804168701,-0.118507854640484,0.717155814170837,1.08367490768433,0.392913997173309,-0.196023002266884,0.845553994178772,Hello
3,1.99638930200308,6.03578233718872,-0.914585053920746,3.45722723007202,7.99696445465088,-1.6170529127121,5.44096326828003,-0.106290549039841,1.01037108898163,1.2400563955307,0.392913997173309,-0.196023002266884,0.845553994178772,Hello
3,1.9969523740001,6.14352178573608,-1.19231247901917,3.09330868721008,7.82287979125977,-1.84185016155243,5.6196551322937,-0.11117747426033,1.32557761669159,1.40132486820221,0.361624985933304,-0.216159000992775,0.863182008266449,Hello
3,2.04434213200148,5.81791019439697,-2.44208574295044,2.95444488525391,7.66981792449951,-2.01263809204102,5.77005767822266,-0.12705996632576,1.68354463577271,1.54915428161621,0.361624985933304,-0.216159000992775,0.863182008266449,Hello
3,2.04612102700048,5.1068320274353,-3.42849683761597,3.74213719367981,7.29893207550049,-2.34480309486389,6.11538219451904,-0.0745255574584007,1.99508583545685,1.6212363243103,0.361624985933304,-0.216159000992775,0.863182008266449,Hello
3,2.04672998500246,5.26245546340942,-3.6152446269989,4.81234550476074,7.0627613067627,-2.52625751495361,6.31710577011108,-0.081855945289135,2.13802838325501,1.64933621883392,0.361624985933304,-0.216159000992775,0.863182008266449,Hello
3,2.09353124900008,5.21457147598267,-3.16513466835022,6.33984613418579,6.57148790359497,-2.84514570236206,6.70008039474487,-0.0891863256692886,2.27119708061218,1.65055787563324,0.361624985933304,-0.216159000992775,0.863182008266449,Hello
3,2.09427388600307,4.60404968261719,-4.48912811279297,7.5465235710144,6.23526763916016,-3.06624746322632,6.92025756835938,-0.289550125598907,2.27974915504456,1.66399693489075,0.260426998138428,-0.222121000289917,0.910995006561279,Hello
3,2.1425169130016,4.85304689407349,-3.87860679626465,7.18978786468506,5.77254009246826,-3.36372828483582,7.17868423461914,-0.579100251197815,2.16490650177002,1.64444923400879,0.260426998138428,-0.222121000289917,0.910995006561279,Hello
3,2.14332694900077,4.69263553619385,-3.80678081512451,6.88332986831665,5.33829307556152,-3.64238333702087,7.37604665756226,-0.412944912910461,2.11237192153931,1.68354463577271,0.260426998138428,-0.222121000289917,0.910995006561279,Hello
3,2.14490476600258,3.82593441009522,-4.12999773025513,8.36773490905762,4.87165355682373,-3.87949872016907,7.57541179656982,-0.0965167060494423,2.10381984710693,1.63467538356781,0.260426998138428,-0.222121000289917,0.910995006561279,Hello
3,2.19027502200333,3.14119267463684,-4.89853668212891,10.2591543197632,4.4112434387207,-4.04411697387695,7.76893997192383,0.0378736443817616,1.94866013526917,1.56992363929749,0.260426998138428,-0.222121000289917,0.910995006561279,Hello
3,2.19338595600129,3.03105926513672,-6.29914474487305,10.5608234405518,3.97880482673645,-4.18087100982666,7.92841815948486,-0.11606439948082,1.73363554477692,1.44042026996613,0.138055995106697,-0.229091003537178,0.946538984775543,Hello
3,2.2394163650024,3.12922167778015,-4.59926128387451,10.2615480422974,3.58557081222534,-4.31045866012573,8.04574489593506,-0.0134390350431204,1.51494586467743,1.34512531757355,0.138055995106697,-0.229091003537178,0.946538984775543,Hello
3,2.24089011700198,1.78607451915741,-4.53461790084839,11.1593742370605,3.21775150299072,-4.38928842544556,8.15785598754883,0.356745302677155,1.4367550611496,1.37689030170441,0.138055995106697,-0.229091003537178,0.946538984775543,Hello
3,2.28957406100017,1.41497325897217,-6.27280855178833,10.5847654342651,2.86555433273315,-4.42122888565064,8.27113723754883,0.01588249579072,1.1545352935791,1.09955739974976,0.138055995106697,-0.229091003537178,0.946538984775543,Hello
3,2.29019412400157,1.84114110469818,-6.88572406768799,10.6853218078613,2.58965444564819,-4.50115203857422,8.31887722015381,-0.265115529298782,0.889419794082642,0.878424227237701,0.138055995106697,-0.229091003537178,0.946538984775543,Hello
3,2.29185498400329,1.55623114109039,-5.43723201751709,11.1330375671387,2.3633348941803,-4.57697916030884,8.3448371887207,0.142942473292351,0.813672482967377,0.74647730588913,0.0561660006642342,-0.223646000027657,0.963594973087311,Hello
3,2.33755350100182,1.23061966896057,-4.40054273605347,10.8457336425781,2.16139769554138,-4.56919956207275,8.403639793396,0.296880513429642,0.679282128810883,0.658512711524963,0.0561660006642342,-0.223646000027657,0.963594973087311,Hello
3,2.33828475400151,0.725443124771118,-4.48912811279297,9.60074901580811,1.98421967029572,-4.56720209121704,8.44830894470215,-0.345749735832214,0.437379509210587,0.64385199546814,0.0561660006642342,-0.223646000027657,0.963594973087311,Hello
3,2.38538340800005,0.876277804374695,-5.72214221954346,11.7315883636475,1.85152387619019,-4.68033218383789,8.41645622253418,-0.795346558094025,0.239459171891212,0.559552550315857,0.0561660006642342,-0.223646000027657,0.963594973087311,Hello
3,2.43474377800158,1.87465989589691,-13.184868812561,13.0053033828735,1.76844811439514,-4.81951475143433,8.35555267333984,0.0293215326964855,-0.360410481691361,0.629191219806671,0.0561660006642342,-0.223646000027657,0.963594973087311,Hello
3,2.43602476400338,4.1347861289978,-2.88501310348511,7.40766000747681,1.86393487453461,-4.80916500091553,8.34074783325195,0.916297852993012,-0.252898216247559,0.0122173046693206,0.0261160004884005,-0.230091005563736,0.96680098772049,Hello
3,2.43664587500098,1.24259066581726,-1.91057300567627,9.24640655517578,1.90592348575592,-4.53557586669922,8.48330116271973,1.12887895107269,-0.0268780700862408,0.252898216247559,0.0261160004884005,-0.230091005563736,0.96680098772049,Hello
3,2.43885192800008,1.80283391475678,-4.55377149581909,9.37569427490234,1.89762794971466,-4.39438676834106,8.55913352966309,0.206472456455231,-0.128281697630882,-0.189368233084679,0.0261160004884005,-0.230091005563736,0.96680098772049,Hello
3,2.48325828400266,1.93690919876099,-3.07654929161072,8.97346782684326,1.94176185131073,-4.30904197692871,8.59256172180176,0.38117989897728,-0.01588249579072,0.0647517144680023,0.0261160004884005,-0.230091005563736,0.96680098772049,Hello
3,2.4837910440001,1.28568625450134,-3.27287364006043,8.98783302307129,1.93008387088776,-4.23716020584106,8.6308536529541,0.388510286808014,0.102625362575054,-0.0549778714776039,0.0261160004884005,-0.230091005563736,0.96680098772049,Hello
3,2.48626410500219,0.960074901580811,-4.28562116622925,8.91121864318848,1.86685574054718,-4.19908380508423,8.66330909729004,-0.102625362575054,0.0342084541916847,0.0720821022987366,0.0340449996292591,-0.20108899474144,0.973509013652802,Hello
3,2.53262186700158,1.40539634227753,-4.49152231216431,8.83460426330566,1.84629034996033,-4.23284292221069,8.65127944946289,-0.194255143404007,-0.01588249579072,0.0366519130766392,0.0340449996292591,-0.20108899474144,0.973509013652802,Hello
3,2.58029784000246,1.11090958118439,-4.13239192962647,8.69574069976807,1.82619035243988,-4.26522541046143,8.63963317871094,0.00366519158706069,-0.0219911485910416,0.0122173046693206,0.0340449996292591,-0.20108899474144,0.973509013652802,Hello
3,2.58204202300112,1.19949507713318,-4.17788219451904,8.64546203613281,1.813028216362,-4.26968240737915,8.64020442962647,-0.0452040284872055,-0.0781907513737679,-0.00244346098043025,0.0340449996292591,-0.20108899474144,0.973509013652802,Hello
3,2.58381672700125,1.62566292285919,-4.87698888778687,8.38688850402832,1.80704283714294,-4.29714059829712,8.62783622741699,-0.102625362575054,-0.114842668175697,-0.03176499158144,0.0340449996292591,-0.20108899474144,0.973509013652802,Hello
3,2.6295211100005,1.95606279373169,-4.7907977104187,8.51378154754639,1.83303844928741,-4.32256555557251,8.60963249206543,0.0439822971820831,-0.0647517144680023,-0.0525344125926495,0.0349319986999035,-0.204658001661301,0.972840011119843,Hello
3,2.63015751700004,1.80522811412811,-3.84748220443726,8.91361331939697,1.84406661987305,-4.27873706817627,8.62914943695068,0.305432617664337,0.00977384392172098,-0.0342084541916847,0.0349319986999035,-0.204658001661301,0.972840011119843,Hello
4,1.81499854079448E-06,1.74537301063538,-2.33434677124023,9.42836666107178,1.80327188968658,-2.37960648536682,9.34109592437744,-0.00122173049021512,-0.00122173049021512,-0.00122173049021512,0.081325002014637,-0.124351002275944,0.987752020359039,Hello
4,0.0454725749987119,1.63045132160187,-2.46602773666382,9.37808799743652,1.80126631259918,-2.38079023361206,9.34118175506592,-0.00610865233466029,-0.00366519158706069,-0.00244346098043025,0.081325002014637,-0.124351002275944,0.987752020359039,Hello
4,0.0481857550003042,1.65918183326721,-2.39659595489502,9.40921306610107,1.80335664749146,-2.38244700431824,9.34035587310791,-0.00610865233466029,-0.00610865233466029,-0.00122173049021512,0.081325002014637,-0.124351002275944,0.987752020359039,Hello
4,0.0498128109975369,1.65678763389587,-2.43490314483643,9.45709705352783,1.80247712135315,-2.38465690612793,9.33996105194092,-0.00977384392172098,-0.00855211354792118,-0.00366519158706069,0.081325002014637,-0.124351002275944,0.987752020359039,Hello
4,0.0965678389984532,1.64960491657257,-2.43011474609375,9.46667385101318,1.80302119255066,-2.38600325584412,9.33951187133789,-0.00977384392172098,-0.00733038317412138,-0.00488692196086049,0.081325002014637,-0.124351002275944,0.987752020359039,Hello
4,0.097423412000353,1.62805712223053,-2.36547136306763,9.38766479492188,1.80164539813995,-2.38159847259522,9.34090232849121,0.00488692196086049,-0.00122173049021512,0,0.0813219994306564,-0.12431900203228,0.9877610206604,Hello
4,0.0980440349994751,1.66157603263855,-2.39899015426636,9.41400146484375,1.80332589149475,-2.38715004920959,9.33915996551514,-0.00733038317412138,-0.00488692196086049,-0.00488692196086049,0.081325002014637,-0.124351002275944,0.987752020359039,Hello
4,0.0985525590003817,1.69270062446594,-2.3056161403656,9.44752025604248,1.80447947978973,-2.38723802566528,9.33891487121582,-0.00610865233466029,-0.00244346098043025,-0.00855211354792118,0.081325002014637,-0.124351002275944,0.987752020359039,Hello
4,0.1455955479978,1.69509482383728,-2.35350036621094,9.46906757354736,1.80712532997131,-2.38774514198303,9.3382740020752,-0.0146607663482428,-0.00488692196086049,-0.0109955742955208,0.0815870016813278,-0.124697998166084,0.987677991390228,Hello
4,0.146453915000166,1.69748902320862,-2.28406834602356,9.44752025604248,1.80845987796783,-2.3894464969635,9.33757972717285,-0.0244346093386412,-0.00977384392172098,-0.01588249579072,0.0815870016813278,-0.124697998166084,0.987677991390228,Hello
4,0.147006511000654,1.71664261817932,-2.32955837249756,9.50258636474609,1.81256985664368,-2.39124441146851,9.33632373809815,-0.019547687843442,-0.00855211354792118,-0.0244346093386412,0.0815870016813278,-0.124697998166084,0.987677991390228,Hello
4,0.193266702997789,1.71424841880798,-2.34631776809692,9.50737476348877,1.81502878665924,-2.39304971694946,9.33538246154785,-0.0256563406437635,-0.00855211354792118,-0.0256563406437635,0.0815870016813278,-0.124697998166084,0.987677991390228,Hello
4,0.194025962999149,1.70706582069397,-2.46363353729248,9.39724159240723,1.81835293769836,-2.40002489089966,9.33294582366943,-0.0390953756868839,-0.0134390350431204,-0.0207694191485643,0.0815870016813278,-0.124697998166084,0.987677991390228,Hello
4,0.242176378000295,1.64721071720123,-2.52588272094727,9.32781028747559,1.81968641281128,-2.41152906417847,9.32971858978272,-0.0354301854968071,-0.0109955742955208,-0.0109955742955208,0.0820690020918846,-0.125784993171692,0.987452983856201,Hello
4,0.242823889999272,1.72621941566467,-2.48518133163452,9.42836666107178,1.82169032096863,-2.41562223434448,9.32826900482178,0.00733038317412138,-0.00610865233466029,-0.0109955742955208,0.0820690020918846,-0.125784993171692,0.987452983856201,Hello
4,0.290669231999345,1.72382521629334,-2.37744235992432,9.44752025604248,1.82420265674591,-2.41082382202148,9.32901954650879,0.0342084541916847,0.00244346098043025,-0.00122173049021512,0.0820690020918846,-0.125784993171692,0.987452983856201,Hello
4,0.292173085999821,1.63523972034454,-2.29364514350891,9.46667385101318,1.82258808612823,-2.40335416793823,9.33126163482666,0.0268780700862408,0.00366519158706069,0,0.0820690020918846,-0.125784993171692,0.987452983856201,Hello
4,0.292766189999384,1.70706582069397,-2.39899015426636,9.46188545227051,1.82205235958099,-2.40148901939392,9.33184623718262,0.00244346098043025,0,0.00366519158706069,0.0820690020918846,-0.125784993171692,0.987452983856201,Hello
4,0.340496082000755,1.7788919210434,-2.44687414169312,9.43315505981445,1.82200479507446,-2.40293097496033,9.3314847946167,0,0.00244346098043025,0.00244346098043025,0.0821520015597343,-0.125580996274948,0.987461984157562,Hello
4,0.34144245099742,1.72382521629334,-2.44926834106445,9.37090587615967,1.82159233093262,-2.40230512619019,9.33172702789307,0.0109955742955208,0.00366519158706069,0,0.0821520015597343,-0.125580996274948,0.987461984157562,Hello
4,0.390188695000688,1.72861361503601,-2.37983655929565,9.47146224975586,1.81988596916199,-2.40069913864136,9.3324728012085,0.0109955742955208,0.00122173049021512,0.00244346098043025,0.0821520015597343,-0.125580996274948,0.987461984157562,Hello
4,0.39084207400083,1.68312382698059,-2.37983655929565,9.39245319366455,1.81956732273102,-2.398432970047,9.33311748504639,0.00855211354792118,0.00366519158706069,0.00122173049021512,0.0821520015597343,-0.125580996274948,0.987461984157562,Hello
4,0.391168518999621,1.75016140937805,-2.37744235992432,9.44512557983398,1.82095074653625,-2.39617013931274,9.33342933654785,0.00977384392172098,0.00244346098043025,0,0.0821520015597343,-0.125580996274948,0.987461984157562,Hello
4,0.437832191997586,1.66636443138123,-2.34152936935425,9.50019264221191,1.81952822208405,-2.39335584640503,9.33442878723145,0.00855211354792118,0.00366519158706069,-0.00244346098043025,0.0820019990205765,-0.125263005495071,0.987519025802612,Hello
4,0.438501074997475,1.71903681755066,-2.43729734420776,9.40681838989258,1.82028329372406,-2.39287257194519,9.33440494537354,-0.00122173049021512,-0.00122173049021512,-0.00366519158706069,0.0820019990205765,-0.125263005495071,0.987519025802612,Hello
4,0.486271475998365,1.71903681755066,-2.31279873847961,9.43794345855713,1.82157337665558,-2.39196348190308,9.33438587188721,-0.00977384392172098,-0.00488692196086049,-0.00488692196086049,0.0820019990205765,-0.125263005495071,0.987519025802612,Hello
4,0.486812687999191,1.69270062446594,-2.37265396118164,9.41639518737793,1.82254815101624,-2.39439845085144,9.33357238769531,-0.01588249579072,-0.00244346098043025,-0.00977384392172098,0.0820019990205765,-0.125263005495071,0.987519025802612,Hello
4,0.487801450999541,1.74297881126404,-2.38941335678101,9.32541561126709,1.82352197170258,-2.39710378646851,9.33268737792969,-0.00366519158706069,0.0109955742955208,-0.0244346093386412,0.0820019990205765,-0.125263005495071,0.987519025802612,Hello
4,0.536501877999399,1.73340201377869,-2.24097275733948,9.60793113708496,1.82100963592529,-2.39377379417419,9.33403205871582,0.00733038317412138,0.0342084541916847,-0.0427605658769608,0.0820029973983765,-0.125535994768143,0.987465023994446,Hello
4,0.53739544599739,1.7980455160141,-2.02070617675781,9.68933391571045,1.81603097915649,-2.38606977462769,9.33697414398193,-0.0109955742955208,0.0855211317539215,-0.0842994004487991,0.0820029973983765,-0.125535994768143,0.987465023994446,Hello
4,0.583356290997472,1.89860188961029,-2.15717577934265,9.73482418060303,1.80353164672852,-2.39487481117249,9.33714294433594,-0.169820532202721,0.128281697630882,-0.081855945289135,0.0820029973983765,-0.125535994768143,0.987465023994446,Hello
4,0.583890936999524,1.721431016922,-2.27688574790955,9.63187313079834,1.77943706512451,-2.44430184364319,9.32895374298096,-0.386066824197769,0.177150920033455,-0.0696386396884918,0.0820029973983765,-0.125535994768143,0.987465023994446,Hello
4,0.632353199998761,1.88184249401093,-1.82917010784149,9.75637149810791,1.75124204158783,-2.52370047569275,9.31313514709473,-0.561996042728424,0.197920337319374,-0.0781907513737679,0.0820029973983765,-0.125535994768143,0.987465023994446,Hello
4,0.632953079999425,1.67354702949524,-2.01591777801514,9.90960121154785,1.71749746799469,-2.6379885673523,9.28771305084229,-0.769690215587616,0.25411993265152,-0.122173048555851,0.0771849974989891,-0.131494000554085,0.986797988414764,Hello
4,0.634846097000263,1.14921677112579,-2.27927994728088,10.1131076812744,1.67452692985535,-2.79850387573242,9.24849796295166,-1.01037108898163,0.249233022332191,-0.164933621883392,0.0771849974989891,-0.131494000554085,0.986797988414764,Hello
4,0.683320232998085,0.945709645748138,-3.12443327903748,9.12430286407471,1.64066135883331,-2.93475675582886,9.21226501464844,-1.17530477046967,0.114842668175697,-0.107512280344963,0.0771849974989891,-0.131494000554085,0.986797988414764,Hello
4,0.684254448999127,1.30244576931,-4.88177728652954,9.90960121154785,1.6328284740448,-3.15610146522522,9.14020156860352,-1.15820050239563,-0.0134390350431204,-0.265115529298782,0.0771849974989891,-0.131494000554085,0.986797988414764,Hello
4,0.729325288997643,1.23061966896057,-4.42448472976685,10.5464582443237,1.67357528209686,-3.38807678222656,9.04933547973633,-0.766025006771088,-0.149051114916801,-0.277332812547684,0.0771849974989891,-0.131494000554085,0.986797988414764,Hello
4,0.730825719998393,1.23061966896057,-4.01507616043091,11.5376577377319,1.71191895008087,-3.45310521125793,9.01752662658691,-0.378736466169357,-0.276111096143723,-0.393397212028503,0.069533996284008,-0.174059003591537,0.979911029338837,Hello
4,0.731513112998073,0.952892303466797,-5.20738887786865,12.102689743042,1.82437252998352,-3.54751443862915,8.95863819122315,-0.588874101638794,-0.421497017145157,-0.24312436580658,0.069533996284008,-0.174059003591537,0.979911029338837,Hello
4,0.778245231998881,2.42293214797974,-5.59285497665405,9.94551372528076,1.97613906860352,-3.68040943145752,8.87242031097412,-0.905302286148071,-0.839328825473785,-0.531452775001526,0.069533996284008,-0.174059003591537,0.979911029338837,Hello
4,0.778865435000625,2.22421336174011,-6.21534776687622,10.1083192825317,2.11541175842285,-3.77816343307495,8.79891490936279,-0.823446333408356,-0.93584555387497,-0.635299861431122,0.069533996284008,-0.174059003591537,0.979911029338837,Hello
4,0.827335589998256,2.30801033973694,-5.57609558105469,11.2647190093994,2.41103887557983,-3.90928912162781,8.66456890106201,-0.627969443798065,-1.06046211719513,-0.774577140808106,0.069533996284008,-0.174059003591537,0.979911029338837,Hello
4,0.828043445999356,2.31519293785095,-5.23851346969605,11.7339820861816,2.68326377868652,-3.97471284866333,8.5540714263916,-0.653625786304474,-1.27426493167877,-0.934623837471008,0.104117996990681,-0.207590997219086,0.968609988689423,Hello
4,0.829769957999815,3.12443327903748,-5.62397956848145,11.4993505477905,2.90549159049988,-4.02575159072876,8.45705795288086,-0.922406494617462,-1.51861095428467,-1.24738681316376,0.104117996990681,-0.207590997219086,0.968609988689423,Hello
4,0.876198121997732,3.54102420806885,-5.72214221954346,10.2016935348511,3.27326488494873,-4.10925436019898,8.28071022033691,-1.02625358104706,-1.69087505340576,-1.39765965938568,0.104117996990681,-0.207590997219086,0.968609988689423,Hello
4,0.876830337998399,3.50511121749878,-6.46913290023804,9.53849983215332,3.8043532371521,-4.19585227966309,8.0057544708252,-1.03847086429596,-1.79472208023071,-1.61757111549377,0.104117996990681,-0.207590997219086,0.968609988689423,Hello
4,0.924254877998465,3.78283858299255,-6.99346303939819,9.05965900421143,4.24481534957886,-4.22434139251709,7.76574993133545,-1.03480577468872,-1.879021525383,-1.95599055290222,0.104117996990681,-0.207590997219086,0.968609988689423,Hello
4,0.925845475998358,4.54898309707642,-7.32625722885132,8.46589756011963,4.5677547454834,-4.20612621307373,7.5904221534729,-0.769690215587616,-1.88757359981537,-2.28341436386108,0.191534996032715,-0.25059300661087,0.938135981559753,Hello
4,0.975043671998719,4.91769027709961,-7.00782823562622,8.02297019958496,5.19291496276856,-4.0421986579895,7.27080965042114,-0.570548117160797,-1.91322994232178,-2.61328148841858,0.191534996032715,-0.25059300661087,0.938135981559753,Hello
4,0.975779045998934,5.0374002456665,-6.4667387008667,6.96712684631348,5.67889308929443,-3.82007336616516,7.02336072921753,-0.34941491484642,-1.89612567424774,-2.89916634559631,0.191534996032715,-0.25059300661087,0.938135981559753,Hello
4,0.976884027997585,5.57370138168335,-5.16668748855591,6.1291561126709,6.1473708152771,-3.54924988746643,6.76631689071655,-0.284663200378418,-1.85580861568451,-3.09586501121521,0.191534996032715,-0.25059300661087,0.938135981559753,Hello
4,1.02237140999932,5.57609558105469,-3.45483303070068,5.55454778671265,6.46902179718018,-3.31279945373535,6.5838828086853,-0.488692194223404,-1.81549155712128,-3.23269891738892,0.191534996032715,-0.25059300661087,0.938135981559753,Hello
4,1.0231241750007,5.92804336547852,-2.88740730285645,5.03979444503784,7.03375291824341,-2.83905100822449,6.21582651138306,-0.623082578182221,-1.79838728904724,-3.28401160240173,0.29526299238205,-0.257027000188828,0.885387003421783,Hello
4,1.07035266599996,6.25126075744629,-1.87465989589691,4.67108774185181,7.42600917816162,-2.45051980018616,5.91774702072144,-0.772133648395538,-1.71286618709564,-3.30966782569885,0.29526299238205,-0.257027000188828,0.885387003421783,Hello
4,1.0718040669999,6.1698579788208,-1.01035308837891,4.16351652145386,7.76945734024048,-2.03647041320801,5.62660646438599,-0.748920798301697,-1.60168862342834,-3.29745054244995,0.29526299238205,-0.257027000188828,0.885387003421783,Hello
4,1.07236713999737,6.3973069190979,-0.239420175552368,3.8379054069519,8.06553745269775,-1.59116101264954,5.34656000137329,-0.414166629314423,-1.54182386398315,-3.16550374031067,0.29526299238205,-0.257027000188828,0.885387003421783,Hello
4,1.11931423399801,6.1507043838501,0.869095206260681,3.51229381561279,8.23464775085449,-1.24277567863464,5.17846536636353,0.563217759132385,-1.26571273803711,-2.97491383552551,0.29526299238205,-0.257027000188828,0.885387003421783,Hello
4,1.12189939299788,6.06451272964478,1.97521638870239,3.78523278236389,8.45967483520508,-0.512946009635925,4.933678150177,0.88819807767868,-1.06534898281097,-2.78065848350525,0.397298008203506,-0.240098997950554,0.804588973522186,Hello
4,1.16835772899867,6.33266353607178,2.18351197242737,3.48835182189941,8.54482460021973,-0.14048370718956,4.81005334854126,0.32253685593605,-0.992045164108276,-2.48866510391235,0.397298008203506,-0.240098997950554,0.804588973522186,Hello
4,1.16989161499805,6.84023427963257,1.95845699310303,3.28723883628845,8.65754318237305,0.39025691151619,4.58966493606567,-0.458148926496506,-0.895528435707092,-2.20888876914978,0.397298008203506,-0.240098997950554,0.804588973522186,Hello
4,1.17066847499882,6.89051246643066,0.553060591220856,3.4620156288147,8.71144199371338,0.68705290555954,4.45074510574341,-0.755029439926148,-0.742812156677246,-1.94010806083679,0.397298008203506,-0.240098997950554,0.804588973522186,Hello
4,1.21716585299873,7.46512079238892,0.134075298905373,3.1196448802948,8.74445247650147,0.943956077098846,4.33750152587891,-0.582765460014343,-0.641408503055573,-1.78739166259766,0.397298008203506,-0.240098997950554,0.804588973522186,Hello
4,1.21795786899747,7.90086555480957,2.51151752471924,3.12443327903748,8.75856876373291,1.23271250724792,4.23536205291748,0.156381502747536,-0.456927210092545,-1.64444923400879,0.449692010879517,-0.216466993093491,0.740392982959747,Hello
4,1.2653367319981,7.52018737792969,2.59531474113464,3.19147086143494,8.74831104278565,1.53669166564941,4.15644407272339,0.315206468105316,-0.272445887327194,-1.42575943470001,0.449692010879517,-0.216466993093491,0.740392982959747,Hello
4,1.2670580060003,7.99184513092041,2.00873517990112,3.46440982818604,8.72726249694824,1.77509129047394,4.10540390014648,-0.1795943826437,-0.223576679825783,-1.25960409641266,0.449692010879517,-0.216466993093491,0.740392982959747,Hello
4,1.31414408799901,8.07085418701172,2.26970314979553,3.98395156860352,8.70114707946777,1.96525883674622,4.07408714294434,-0.090408056974411,-0.141720741987228,-1.0677924156189,0.449692010879517,-0.216466993093491,0.740392982959747,Hello
4,1.31482610199964,7.80270338058472,2.55461311340332,4.09169054031372,8.66806888580322,2.1428394317627,4.05502033233643,0.101403631269932,-0.0439822971820831,-0.907745778560638,0.449692010879517,-0.216466993093491,0.740392982959747,Hello
4,1.3174037869976,7.88650035858154,2.65516972541809,4.30956315994263,8.64347457885742,2.25785636901855,4.04509973526001,0.103847093880177,-0.0329867228865624,-0.720820963382721,0.471316009759903,-0.19030199944973,0.707489013671875,Hello
4,1.36449203399752,7.25443124771118,5.76523780822754,4.56574249267578,8.60122489929199,2.43244028091431,4.03392696380615,0.0977384373545647,0.0659734457731247,-0.525344133377075,0.471316009759903,-0.19030199944973,0.707489013671875,Hello
4,1.36516440999912,7.2807674407959,4.85783529281616,4.49631071090698,8.55058193206787,2.59435606002808,4.04069948196411,-0.0794124826788902,0.0256563406437635,-0.0598647929728031,0.471316009759903,-0.19030199944973,0.707489013671875,Hello
4,1.4127842300004,8.19774627685547,2.26491475105286,3.77565598487854,8.55694389343262,2.56868958473206,4.04362916946411,-0.411723166704178,-0.0671951770782471,0.109955742955208,0.471316009759903,-0.19030199944973,0.707489013671875,Hello
4,1.41341965999891,8.45871448516846,1.2449848651886,4.12999773025513,8.57449722290039,2.48689818382263,4.05755281448364,-0.230907067656517,0.00855211354792118,0.1795943826437,0.471316009759903,-0.19030199944973,0.707489013671875,Hello
4,1.41471559099955,8.65743350982666,1.07260239124298,4.48433971405029,8.58820152282715,2.38733506202698,4.08825302124023,0.0647517144680023,0.081855945289135,0.19058994948864,0.469978988170624,-0.190182998776436,0.702609002590179,Hello
4,1.46121436599788,8.77474880218506,0.933738648891449,4.32392835617065,8.60391521453857,2.27516460418701,4.11906051635742,-0.0500909499824047,0.109955742955208,0.129503428936005,0.469978988170624,-0.190182998776436,0.702609002590179,Hello
4,1.46175061800022,8.76517200469971,1.51552963256836,4.18267059326172,8.60685062408447,2.19888639450073,4.15420198440552,-0.120951317250729,0.156381502747536,0.0733038261532784,0.469978988170624,-0.190182998776436,0.702609002590179,Hello
4,1.51130117099819,8.66940402984619,2.18590617179871,4.33589935302734,8.60060977935791,2.17917490005493,4.1774525642395,0.0293215326964855,0.212581098079681,0.0549778714776039,0.469978988170624,-0.190182998776436,0.702609002590179,Hello
4,1.51194386299903,8.57842445373535,2.97120428085327,4.76446151733398,8.58038711547852,2.17770338058472,4.21959066390991,0.183259576559067,0.261450320482254,0.117286130785942,0.469978988170624,-0.190182998776436,0.702609002590179,Hello
4,1.51229894399876,8.53772354125977,4.98472785949707,4.97515106201172,8.56126880645752,2.1821711063385,4.25596046447754,0.445931643247604,0.362853944301605,0.335975885391235,0.463474988937378,-0.187132000923157,0.710026025772095,Hello
4,1.55868659800035,8.25999546051025,6.07169532775879,4.59447288513184,8.54927349090576,2.15906119346619,4.2917103767395,0.547335267066956,0.395840674638748,0.72570788860321,0.463474988937378,-0.187132000923157,0.710026025772095,Hello
4,1.55989089599825,8.91361331939697,9.05008220672607,3.02387666702271,8.55658721923828,2.04674911499023,4.33198022842407,0.415388375520706,0.447153359651566,1.2156218290329,0.463474988937378,-0.187132000923157,0.710026025772095,Hello
4,1.60723309199966,8.54011726379395,9.86889934539795,3.57933163642883,8.57094287872315,1.80403244495392,4.41075897216797,0.00733038317412138,0.660956203937531,1.94010806083679,0.463474988937378,-0.187132000923157,0.710026025772095,Hello
4,1.60782647499946,8.03972911834717,7.98705673217773,3.69904160499573,8.57900428771973,1.5463889837265,4.4921875,-0.520457208156586,0.734260022640228,2.62305545806885,0.463474988937378,-0.187132000923157,0.710026025772095,Hello
4,1.65521392899973,7.86255836486816,3.00711727142334,3.99831676483154,8.58240222930908,1.07206606864929,4.62205982208252,-0.0952949747443199,0.910189211368561,3.22781205177307,0.434228003025055,-0.199231997132301,0.758305013179779,Hello
4,1.65696921599738,7.41484260559082,4.51785850524902,5.42047262191773,8.51804161071777,0.415148496627808,4.84159183502197,0.510683357715607,1.2400563955307,3.52469253540039,0.434228003025055,-0.199231997132301,0.758305013179779,Hello
4,1.65754814200045,4.65911674499512,-3.69664740562439,7.24006605148315,8.42367839813232,-0.0102250417694449,5.02114725112915,0.197920337319374,1.25471723079681,3.76048636436462,0.434228003025055,-0.199231997132301,0.758305013179779,Hello
4,1.70632288200068,4.85544109344482,-10.6518030166626,7.06528902053833,8.27386093139648,-0.655680418014526,5.22337865829468,-0.177150920033455,0.978606104850769,3.28889846801758,0.434228003025055,-0.199231997132301,0.758305013179779,Hello
4,1.70689698899878,5.68622922897339,-9.98621559143066,8.16422748565674,8.06196880340576,-1.28259825706482,5.43414974212647,0.70371675491333,0.945619404315949,2.56685566902161,0.434228003025055,-0.199231997132301,0.758305013179779,Hello
4,1.75325698599772,5.77720880508423,-8.26717853546143,7.24485445022583,7.90710115432739,-1.55459535121918,5.58850479125977,0.792903065681458,0.685390830039978,1.71530961990356,0.360778003931046,-0.230343997478485,0.845601975917816,Hello
4,1.75411109299966,6.43800830841064,-6.74207210540772,6.72052431106567,7.81618690490723,-1.69157886505127,5.67592906951904,0.637743294239044,0.420275300741196,1.13498759269714,0.360778003931046,-0.230343997478485,0.845601975917816,Hello
4,1.75585017699996,6.68461132049561,-6.76361989974976,6.52898788452148,7.73090362548828,-1.81966400146484,5.75259447097778,0.194255143404007,0.177150920033455,0.635299861431122,0.360778003931046,-0.230343997478485,0.845601975917816,Hello
4,1.80311282099865,6.97670364379883,-5.60482597351074,6.33745193481445,7.68706035614014,-1.91893982887268,5.77902793884277,0.210137650370598,-0.0452040284872055,0.240680903196335,0.360778003931046,-0.230343997478485,0.845601975917816,Hello
4,1.80388213799961,7.04852962493897,-3.7349545955658,6.19140577316284,7.67494344711304,-1.96023893356323,5.78127098083496,0.294437050819397,-0.210137650370598,-0.0366519130766392,0.360778003931046,-0.230343997478485,0.845601975917816,Hello
4,1.89950542400038,6.9623384475708,-2.92810869216919,5.48272180557251,7.69408178329468,-1.95651721954346,5.75704193115234,0.0952949747443199,-0.316428184509277,-0.206472456455231,0.353197008371353,-0.22239300608635,0.862437009811401,Hello
4,1.9002869649994,6.90966606140137,-2.0973207950592,5.33428144454956,7.73916101455689,-1.9236501455307,5.70748043060303,0.0488692186772823,-0.302989155054092,-0.288328409194946,0.353197008371353,-0.22239300608635,0.862437009811401,Hello
4,1.90185172099882,6.52659368515015,-0.737414121627808,5.29836845397949,7.78422069549561,-1.8682564496994,5.66444158554077,0.172263994812965,-0.219911485910416,-0.265115529298782,0.353197008371353,-0.22239300608635,0.862437009811401,Hello
4,1.90244936499948,6.27041435241699,-0.0814028605818749,4.62320327758789,7.81862354278564,-1.81356859207153,5.63475608825684,-0.00244346098043025,-0.145385921001434,-0.106290549039841,0.353197008371353,-0.22239300608635,0.862437009811401,Hello
4,1.90484001200093,6.13633918762207,-0.0287304203957319,3.56257224082947,7.83735036849976,-1.81596279144287,5.60790681838989,-0.377514719963074,-0.0256563406437635,0.114842668175697,0.353197008371353,-0.22239300608635,0.862437009811401,Hello
4,1.94826102699881,6.13394498825073,-0.617704033851624,3.01669406890869,7.83030605316162,-1.89283442497253,5.5923056602478,-0.504574716091156,0.259006857872009,0.350636661052704,0.361750990152359,-0.224546998739243,0.856857001781464,Hello
4,1.94886642399797,5.76523780822754,-0.696712672710419,3.54820680618286,7.77637958526611,-2.00975871086121,5.62665128707886,-0.206472456455231,0.635299861431122,0.574213325977325,0.361750990152359,-0.224546998739243,0.856857001781464,Hello
